acc_x, acc_y, angular_z, stamp, 
-0.04781083511124441, 0.008347449111637189, 0.0004018109348973551, 4895171000000, 
-0.0832273376599655, 0.0012924125774474763, 0.0001756469848517346, 4895176000000, 
-0.029174349446676396, -0.014592266640477053, -0.00031860013979037875, 4895181000000, 
-0.041492690785679354, -0.015437590648090546, 2.7434217587112673e-05, 4895186000000, 
-0.08657421412640666, 0.013481435342517825, 5.6441763630680916e-05, 4895191000000, 
-0.04022107064606168, 0.001352406340028433, 3.68001017800833e-05, 4895196000000, 
-0.03267219084559503, 0.01986753575263084, -0.00041677168843451157, 4895201000000, 
-0.04744810060294428, 0.012224570125411073, 0.00034469860245548464, 4895206000000, 
-0.0211037837727375, 0.02000558469348314, 0.00027240284863777196, 4895211000000, 
-0.07932907725954744, 0.011899945431838765, -0.0002757843487529515, 4895216000000, 
-0.05420667686264125, 0.01624268978227546, 0.0003111732588328033, 4895221000000, 
-0.08295909703695063, -0.0060965970085287355, 2.1706372797154453e-05, 4895226000000, 
-0.056975064064116565, -0.020065630205482875, -4.119163523691529e-05, 4895231000000, 
-0.03578974526283092, 0.011114067312158681, -0.00015587375398761567, 4895236000000, 
-0.03960134284439207, 0.00495945041148725, -7.833232301498517e-05, 4895241000000, 
-0.07433398225986004, -0.0016180644149467304, 0.00012713777935786233, 4895246000000, 
-0.06524504895956762, -0.007098511664189047, -3.0334343476371092e-05, 4895251000000, 
-0.028865730530792735, -0.0040214394102893155, 2.1329898273709486e-05, 4895256000000, 
-0.06278013020544959, 0.00664560288593108, -0.00011888904909123976, 4895261000000, 
-0.04819346749014234, -0.014418678725918675, -1.2237075384935488e-05, 4895266000000, 
-0.060640227010081114, 0.014334215229294407, -0.00011899920779094361, 4895271000000, 
-0.05163605151074696, -0.01590898726398489, 0.0003014687169379489, 4895276000000, 
-0.05754332098175682, 0.020598178726361438, -5.783339949111981e-05, 4895281000000, 
-0.06523243688255546, 0.004975855984098808, -0.0001871839946558683, 4895286000000, 
-0.061564643622609085, -0.0012343295739492843, 0.00021429887914299563, 4895291000000, 
-0.03551906435262769, 0.008858078129441322, 8.691365352945335e-05, 4895296000000, 
-0.0627867608901273, 0.01772960153036302, 6.176156162642245e-05, 4895301000000, 
-0.06543031206706035, -0.02960297489358084, -0.00017049561545707007, 4895306000000, 
-0.05961202616742212, 0.004078505603745215, -0.00044601098682692616, 4895311000000, 
-0.062392199554176256, -0.024707791158391883, -6.585797930230136e-05, 4895316000000, 
-0.0722183008816859, 0.03101695019330059, -0.00042593681769595866, 4895321000000, 
6.727406649740902, 0.09995226883347286, -0.000389961334856566, 4895326000000, 
-0.01932380424752432, -0.06384348033195893, -0.0014222472794342747, 4895331000000, 
-0.2578097708917696, 0.10401856274128163, -0.002319621589352993, 4895336000000, 
-0.061054309525243614, -0.014115931772738913, -0.00291218021707416, 4895341000000, 
0.1154393119693314, -0.042292132300762085, -0.003984119279703886, 4895346000000, 
-0.20125822764621146, 0.06379478807908484, -0.004960074929370647, 4895351000000, 
3.2157644616999765, 0.06629175913892212, -0.0034328051985515464, 4895356000000, 
0.8319286030252778, -0.08426326327678749, 0.013802942726672048, 4895361000000, 
-0.25671057880659476, 0.10641943055863659, 0.04002733112218577, 4895366000000, 
-0.05824299238634671, -0.04023504830695157, 0.07252585901893069, 4895371000000, 
-0.06542811302819182, -0.004076935432275379, 0.10863427781921028, 4895376000000, 
0.06153589703192257, -0.05674838810567115, 0.1463030889885299, 4895381000000, 
-0.2537659824057833, 0.05269781318965874, 0.18257126847845997, 4895386000000, 
3.3863016008160294, 0.0010027718647672816, 0.21189011691213822, 4895391000000, 
0.43642925021034, -0.0003758767536602191, 0.27337248780585505, 4895396000000, 
-0.12895872343897982, -0.01564965762005221, 0.3286540514634136, 4895401000000, 
-0.07639644035938396, 0.013713306828009298, 0.3826760406337238, 4895406000000, 
-0.053371115709755376, 0.04151776517518589, 0.432946307472468, 4895411000000, 
-0.03377022481343926, 0.0221391142514598, 0.47604789937700775, 4895416000000, 
-0.03089378270355737, 0.016535034502708542, 0.5107577107361996, 4895421000000, 
4.208464174296943, 0.037168419995320785, 0.5415365855538393, 4895426000000, 
-0.11862496586545891, 0.06314472037448346, 0.5736476557667229, 4895431000000, 
-0.06230791124264645, 0.04816909581006143, 0.6015927364420134, 4895436000000, 
-0.0733505016242692, 0.06572698357315244, 0.6247980210629005, 4895441000000, 
-0.054311397619242724, 0.06866503864991996, 0.6409883214718857, 4895446000000, 
-0.05679909660353572, 0.04717281134895928, 0.650040200692602, 4895451000000, 
-0.059354059815429815, 0.06362496762518988, 0.6521761882794157, 4895456000000, 
3.4765377319448545, 0.06706457076724412, 0.662196635160866, 4895461000000, 
-0.12855956289423778, 0.0641367614702161, 0.6798956394968563, 4895466000000, 
-0.08186102334466994, 0.08962487357240477, 0.7011792654859698, 4895471000000, 
-0.07154721144804549, 0.06025849593659212, 0.7250187417109109, 4895476000000, 
-0.0796602695324447, 0.09129149075041199, 0.7489278567472385, 4895481000000, 
-0.09572500196526743, 0.08341224502868017, 0.7717145300131254, 4895486000000, 
-0.0346207558118963, 0.08266960425738573, 0.7920647057160383, 4895491000000, 
3.3617459621419115, 0.0503926892439459, 0.828837539736744, 4895496000000, 
-0.11544354700617314, 0.09627431099940525, 0.8718951330217604, 4895501000000, 
-0.09106527893037855, 0.10806027401589, 0.918864260997179, 4895506000000, 
-0.0740498927284635, 0.11848200179217887, 0.9561078965771991, 4895511000000, 
-0.03217701726063541, 0.14227702263057235, 1.0084530951826893, 4895516000000, 
-0.05979410218544952, 0.14455480526351394, 1.0466337626707185, 4895521000000, 
-0.014602671991662017, 0.13753874278279105, 1.0713356712004274, 4895526000000, 
3.384059850260198, 0.11838112735188167, 1.1174700601215988, 4895531000000, 
-0.12246264720478034, 0.14167292284708063, 1.1547141873431086, 4895536000000, 
-0.0674658456328016, 0.146782190352526, 1.1884501439615818, 4895541000000, 
-0.04808887661277279, 0.168569620455791, 1.2169445337510996, 4895546000000, 
-0.0487416153903114, 0.19370372007044473, 1.2384090459407615, 4895551000000, 
-0.03760269054761488, 0.16319600671018805, 1.251944315673167, 4895556000000, 
3.477342664702935, 0.19842821273108138, 1.260100854553383, 4895561000000, 
0.5044712181826025, 0.19827254463346794, 1.286212518425615, 4895566000000, 
-0.04291629511145283, 0.2067438561128063, 1.3105464158171296, 4895571000000, 
-0.06771283291772476, 0.23287292993647823, 1.3361892935036739, 4895576000000, 
-0.05298152730391495, 0.225942906116931, 1.361469902799533, 4895581000000, 
-0.056494363834693966, 0.2122414066552948, 1.3836853382734184, 4895586000000, 
-0.06491898588048536, 0.22542515826396767, 1.4026754086023676, 4895591000000, 
4.0754294106635385, 0.2098199809139474, 1.4248192380150193, 4895596000000, 
-0.16288646371304166, 0.25987352588258045, 1.456085014349942, 4895601000000, 
-0.06172387829129447, 0.25505962179396563, 1.4824813348860388, 4895606000000, 
-0.06676689763081307, 0.28378368181970753, 1.5225968380111432, 4895611000000, 
-0.0477052136902374, 0.2610346355894406, 1.5535482123705946, 4895616000000, 
-0.051516972717047235, 0.2864828117071032, 1.5801527675994553, 4895621000000, 
-0.03781233641409395, 0.2688391389711608, 1.601859451871312, 4895626000000, 
3.3866147765977406, 0.2521526864011707, 1.6312646867381733, 4895631000000, 
-0.10901158110200462, 0.3085889604772799, 1.6677722509621775, 4895636000000, 
-0.08950188733477206, 0.30950544556189874, 1.706570514776458, 4895641000000, 
-0.04907098248148562, 0.350312415211486, 1.7360872554333722, 4895646000000, 
-0.023970110858248496, 0.33512868908088495, 1.778224890695829, 4895651000000, 
-0.037302909027688555, 0.33716809693866373, 1.8073756715718203, 4895656000000, 
-0.04220051190115952, 0.38170273102713137, 1.8260778642363218, 4895661000000, 
-0.03132477698766824, 0.34943807443271646, 1.8446332425539347, 4895666000000, 
0.00013035665736694374, 0.3984421010318767, 1.850906530938356, 4895671000000, 
-0.03599626291567209, 0.352157768742008, 1.8502155674196454, 4895676000000, 
-0.009489279162228068, 0.3564985545871467, 1.8431258881336645, 4895681000000, 
-0.035147842092662036, 0.363007636519316, 1.826633423742009, 4895686000000, 
-0.027475182390583365, 0.3841615960482637, 1.8118408658541452, 4895691000000, 
-0.010074769895585551, 0.37986708929216373, 1.790208539330464, 4895696000000, 
0.010615665593556731, 0.3230856382258848, 1.7544005705038515, 4895701000000, 
-0.036722092887674904, 0.35466829524840054, 1.7200058026262548, 4895706000000, 
-0.022023956971521916, 0.34309061062299034, 1.6845027810476347, 4895711000000, 
-0.018594582942928217, 0.33477412170857423, 1.6512896733570095, 4895716000000, 
-0.06086520747035004, 0.3380067496814902, 1.627235585697154, 4895721000000, 
-0.06259133104546089, 0.35125925552191417, 1.5969834086380224, 4895726000000, 
-0.06358039759797672, 0.33291143092287007, 1.5791036536954866, 4895731000000, 
-0.035092030226851215, 0.27987052499775816, 1.5683532544060985, 4895736000000, 
-0.03391087663301321, 0.30896890213484146, 1.564066174359511, 4895741000000, 
-0.03282931600655947, 0.300937384257295, 1.566957530152366, 4895746000000, 
-0.01746860695339631, 0.3179366227274328, 1.5758788392514094, 4895751000000, 
-0.056766834651218595, 0.3354738797417735, 1.5896072412669193, 4895756000000, 
-0.06353210193677887, 0.31024571663075773, 1.6068050306337247, 4895761000000, 
-0.014959309548531884, 0.3334150325201722, 1.6269139003021118, 4895766000000, 
-0.03946504160889633, 0.3312157482167305, 1.6472802580261663, 4895771000000, 
-0.020939794421248582, 0.3380711136131793, 1.667599723406162, 4895776000000, 
-0.01980820354699713, 0.3354571785289387, 1.6859552562233644, 4895781000000, 
-0.03903348726362971, 0.36236266587799487, 1.7012089923274736, 4895786000000, 
-0.03579159716728102, 0.35103029720044704, 1.7129292082447927, 4895791000000, 
-0.03956532511184521, 0.32385476283387316, 1.7209860977389622, 4895796000000, 
-0.010103082733430725, 0.3365407502519946, 1.7195136866175045, 4895801000000, 
-0.03333632861643837, 0.3593886177286617, 1.7101893640250179, 4895806000000, 
-0.008483936772573503, 0.3389840391371175, 1.6942608501182872, 4895811000000, 
-0.025193979090549525, 0.343344554193258, 1.6736455869963571, 4895816000000, 
-0.044705007678315416, 0.31892866275753695, 1.6498023941313575, 4895821000000, 
-0.033198558823131975, 0.3361991294805243, 1.6243248160284451, 4895826000000, 
-0.02051453213175671, 0.3429872028636201, 1.5999133396265321, 4895831000000, 
-0.04464362352673157, 0.3003407883168077, 1.5764060888489175, 4895836000000, 
0.002772137248262023, 0.32185982846270256, 1.556810308004133, 4895841000000, 
-0.03518050448170118, 0.31684841034122874, 1.5410653781036823, 4895846000000, 
-0.014526754573216366, 0.31492741318997475, 1.5309754521486214, 4895851000000, 
-0.030229397705026813, 0.31656522635088596, 1.5253569974415744, 4895856000000, 
0.001665634918747258, 0.29514975629979134, 1.5248905418556722, 4895861000000, 
-0.04621323615710097, 0.32595693516514546, 1.5297453875018463, 4895866000000, 
-0.007425287916159776, 0.32218662695033556, 1.5382624388449977, 4895871000000, 
-0.054727214108493474, 0.3130784102405533, 1.5500657654802168, 4895876000000, 
-0.043577432013071044, 0.32502641105724644, 1.5636543842415707, 4895881000000, 
-0.016399329435118695, 0.28143987405983817, 1.5786710607954508, 4895886000000, 
-0.06414961802343297, 0.30165986015354623, 1.5938214775072614, 4895891000000, 
-0.017482664576601338, 0.2941319397032472, 1.6075380830636476, 4895896000000, 
-0.02540867962035879, 0.2899247356180804, 1.6182489214805513, 4895901000000, 
-0.044177643248999254, 0.33479105597997505, 1.621520125337179, 4895906000000, 
-0.047592105161127815, 0.3189838104460013, 1.6192111671299392, 4895911000000, 
-0.013718655810380773, 0.30561739251049025, 1.6119140583618876, 4895916000000, 
-0.03263996175466825, 0.2711850165116591, 1.6001186864908297, 4895921000000, 
-0.024335439260515047, 0.2955583833808311, 1.5858371518456371, 4895926000000, 
-0.026084997821312947, 0.2814986769537512, 1.5694726337586136, 4895931000000, 
-0.027927372111986155, 0.280051800750352, 1.5523129098552437, 4895936000000, 
-0.06846224426710655, 0.2709070383060672, 1.5359534685777303, 4895941000000, 
-0.007176093077593659, 0.2873925087437368, 1.521003073328386, 4895946000000, 
-0.013376106388672081, 0.2937977893408036, 1.508503238216458, 4895951000000, 
-0.05829070991559515, 0.2716647605121079, 1.4987653200795295, 4895956000000, 
-0.022890165397144044, 0.27820133367944766, 1.492372519483203, 4895961000000, 
-0.03179000283223106, 0.3024225296862223, 1.4897573621662028, 4895966000000, 
-0.030593712260608027, 0.32302933497633307, 1.486220384518487, 4895971000000, 
-0.04597832057278916, 0.31071790055472254, 1.4827456047234, 4895976000000, 
-4.628449570661872e-05, 0.32490890644588216, 1.4782962274239404, 4895981000000, 
-0.046464108387673696, 0.3085978754832321, 1.4746502593380213, 4895986000000, 
-0.008224483641330495, 0.33630995616859244, 1.4720488737988329, 4895991000000, 
-0.0035539979141368284, 0.29428716881579825, 1.4703232808005329, 4895996000000, 
-0.018662528932157918, 0.2807447666321752, 1.4685507192679428, 4896001000000, 
-0.04883414719008218, 0.2937260149802065, 1.4684972438050161, 4896006000000, 
-0.02387327710493866, 0.31746890590766946, 1.469012207955319, 4896011000000, 
-0.023957664485270518, 0.30998363330363693, 1.4696427277424204, 4896016000000, 
-0.004092569414288372, 0.30746030251584683, 1.471156584235631, 4896021000000, 
-0.02265872897384403, 0.29721116072266207, 1.473713248948156, 4896026000000, 
-0.04339756913599253, 0.3259378830574482, 1.4762049920508373, 4896031000000, 
-0.031096303724716386, 0.2912825751717036, 1.4784109751922352, 4896036000000, 
-0.04584237642309173, 0.2938966129220511, 1.4807898217530189, 4896041000000, 
-0.014841164272643917, 0.2878377522647907, 1.48275558396867, 4896046000000, 
-0.025188364249026887, 0.3125950872476095, 1.4851169978359344, 4896051000000, 
-0.020996031043875547, 0.3333887895673348, 1.486222407832424, 4896056000000, 
-0.0010940855109353304, 0.3069000233130493, 1.4869690157141984, 4896061000000, 
-0.011544854114551674, 0.320529583278509, 1.48720854314779, 4896066000000, 
-0.03699307349468091, 0.28970330111275816, 1.4859000530286206, 4896071000000, 
-0.06709557948851065, 0.3431229050215705, 1.4790872649037603, 4896076000000, 
-0.01961052215427221, 0.326578071469242, 1.4696966798003448, 4896081000000, 
-0.005139254081331639, 0.27055488883649864, 1.4578443035629922, 4896086000000, 
-0.009664229271782582, 0.29263621938537193, 1.445786825810982, 4896091000000, 
-0.02475042233440548, 0.2709881307690599, 1.4333230840389757, 4896096000000, 
-0.023100959863767215, 0.29087192788398675, 1.4213960772693808, 4896101000000, 
-0.05410271615319767, 0.3198850424991525, 1.4104293944590087, 4896106000000, 
-0.009840044947109067, 0.27569142816227016, 1.402360886762222, 4896111000000, 
-0.010477825631664477, 0.2866986338572016, 1.396317957970993, 4896116000000, 
-0.03732838798425451, 0.2801597099493465, 1.3923126738193765, 4896121000000, 
-0.04575249648825832, 0.28713574757749044, 1.3908372918903165, 4896126000000, 
-0.049378072418863314, 0.2903909882729514, 1.3919297902243013, 4896131000000, 
-0.03185067868345418, 0.2974876348204474, 1.3953819766843494, 4896136000000, 
-0.03571709137655712, 0.2907432411067754, 1.400474696621413, 4896141000000, 
-0.029471248052106956, 0.316044950443236, 1.4071632499933622, 4896146000000, 
-0.024846834264291722, 0.28176384872439153, 1.414449373285228, 4896151000000, 
-0.029356058673680515, 0.3063019485594643, 1.4218949861627406, 4896156000000, 
-0.02982208597000584, 0.28865774786468873, 1.42763393486137, 4896161000000, 
-0.02705433639928622, 0.30227027356918484, 1.4356167069163266, 4896166000000, 
-0.05010913358808988, 0.322190459233694, 1.4409767677147505, 4896171000000, 
-0.029778475685751628, 0.30110968150059714, 1.4408495929229026, 4896176000000, 
-0.046810482742163755, 0.3182387178033536, 1.4361705074472142, 4896181000000, 
-0.03692883787526404, 0.34526381351275465, 1.4304241085036997, 4896186000000, 
-0.030932119411514684, 0.326020983184868, 1.4187497648480618, 4896191000000, 
-0.022713112849901157, 0.2732254470904535, 1.4061549091991212, 4896196000000, 
-0.02551210393504033, 0.2997066882560181, 1.392985299365244, 4896201000000, 
-0.0048079830820212735, 0.27103987168638344, 1.3802946087021741, 4896206000000, 
-0.01054566527203394, 0.28824522398893326, 1.3687045820403845, 4896211000000, 
-0.052580257261046426, 0.2900000455822888, 1.3580439253113779, 4896216000000, 
-0.02102097436956259, 0.3076500198164103, 1.3500922628291991, 4896221000000, 
-0.03672992031758876, 0.28041368638813646, 1.3442503526518665, 4896226000000, 
-0.03830053766675086, 0.29604611949156173, 1.34124846213448, 4896231000000, 
-0.04706280079798016, 0.26021480556814996, 1.3409801201582334, 4896236000000, 
-0.015339655720841165, 0.30182493779460234, 1.3426834300418047, 4896241000000, 
-0.0217657150224584, 0.2903961844971772, 1.3457897938000654, 4896246000000, 
-0.009396909115339715, 0.29335303233854937, 1.352475436201492, 4896251000000, 
-0.013911847149796246, 0.2822307672989108, 1.3594323750808415, 4896256000000, 
-0.05035572740146875, 0.2931050412630136, 1.3671957039567544, 4896261000000, 
-0.06314375914767206, 0.3041989372254441, 1.3747688144071435, 4896266000000, 
-0.04909268101349174, 0.3078615803166862, 1.3820091212206373, 4896271000000, 
-0.061524770128017846, 0.27615677929800153, 1.3863003087915826, 4896276000000, 
-0.06262136358903755, 0.2711427545420537, 1.3862410295717955, 4896281000000, 
0.009991039735580909, 0.33750721729915295, 1.3819573463663006, 4896286000000, 
-0.020956616504198493, 0.319862718855408, 1.3751667795799836, 4896291000000, 
-0.019342988313481555, 0.2957878308277569, 1.3680816478040554, 4896296000000, 
-0.061959913610278354, 0.3005370121257879, 1.3559613389304679, 4896301000000, 
-0.025443479667607426, 0.2944697782021482, 1.345242941912601, 4896306000000, 
-0.03869701112498304, 0.30060250560613844, 1.333755579988652, 4896311000000, 
-0.041822703235222095, 0.3093854824723648, 1.323860738911566, 4896316000000, 
-0.03145533980629755, 0.31190244445978704, 1.314932559999566, 4896321000000, 
-0.02246310868643883, 0.31520720192237456, 1.3075253193444951, 4896326000000, 
-0.04654629877428865, 0.28149526557349414, 1.3032655577171703, 4896331000000, 
-0.015719350195777165, 0.3316521465992138, 1.3004959092316017, 4896336000000, 
-0.08221302836638586, 0.31993883969103176, 1.2998979125944008, 4896341000000, 
-0.06911241544243477, 0.2769381978337409, 1.2975965036488386, 4896346000000, 
-0.03232224377735199, 0.28099275520529465, 1.2950308630576246, 4896351000000, 
-0.0357597365722873, 0.2851236370121671, 1.292363496481294, 4896356000000, 
-0.02549054224708608, 0.2891709483342553, 1.2896658442258595, 4896361000000, 
-0.0414752019213956, 0.31928725441541833, 1.2872589709764968, 4896366000000, 
-0.028086247719227533, 0.27340339072792713, 1.2851071326470866, 4896371000000, 
-0.04622433321082532, 0.2838163383903314, 1.2836359903761934, 4896376000000, 
-0.05271157161236478, 0.3151306427710815, 1.282066544886152, 4896381000000, 
-0.050217488739952666, 0.30332709963939664, 1.2816188003217752, 4896386000000, 
-0.015769342622763274, 0.2973632079024313, 1.2812513231575493, 4896391000000, 
-0.03598184605798124, 0.2707210316804779, 1.2813386816714831, 4896396000000, 
-0.022794652886281946, 0.3182786587175731, 1.2826271447097808, 4896401000000, 
-0.012869449662446582, 0.3219662566978279, 1.2833226566193319, 4896406000000, 
-0.0311563631431857, 0.2780157908515089, 1.2850236864522562, 4896411000000, 
-0.054166128777538694, 0.30583300280739467, 1.2868255574317558, 4896416000000, 
-0.046081887587321166, 0.32385962733861223, 1.2882700253359525, 4896421000000, 
-0.025158593495493365, 0.284187195800576, 1.2895695265872535, 4896426000000, 
-0.03273167167548706, 0.29948531240278525, 1.2908917743102237, 4896431000000, 
-0.0017358318925137159, 0.2816669177285144, 1.2918698484901452, 4896436000000, 
-0.05727422092447154, 0.29647759701668225, 1.2932652730653524, 4896441000000, 
-0.06421537762307075, 0.3046086954234044, 1.292204281536214, 4896446000000, 
-0.17944442097392216, 0.21026009988010785, 1.2871193387720958, 4896451000000, 
-0.1213573428725242, 0.2772287198990396, 1.2836226241824154, 4896456000000, 
-0.06730951671482555, 0.5464462666924758, 1.279937785317738, 4896461000000, 
-0.1498729690379715, 0.4031679053784506, 1.2789525997998283, 4896466000000, 
-0.1423175401569625, 0.3655221517971711, 1.2793477634455341, 4896471000000, 
-0.1319907037397181, 0.3078638289222956, 1.2816580896831629, 4896476000000, 
-0.1451066398422072, 0.30585953069224103, 1.2844120534950059, 4896481000000, 
-0.11483804619767077, 0.3263796428268532, 1.2888422352094202, 4896486000000, 
-0.06688773526764835, 0.299652818128267, 1.2939221716013083, 4896491000000, 
-0.07739127224302343, 0.32282838715190015, 1.2988066930467308, 4896496000000, 
-0.07043655592538159, 0.29085550609300637, 1.3041683966280317, 4896501000000, 
-0.065603009013095, 0.3210965262364339, 1.30884961108354, 4896506000000, 
-0.028515408426417574, 0.3205270807986741, 1.312800010323461, 4896511000000, 
-0.03274545648586373, 0.29191802500057956, 1.3162303000284346, 4896516000000, 
-0.023474608340029915, 0.30360136930665726, 1.3180679188421625, 4896521000000, 
-0.011035408466547639, 0.338592721088554, 1.319522757335018, 4896526000000, 
-0.014696096237915322, 0.3177245895591719, 1.3197440067996424, 4896531000000, 
-0.034038568350991255, 0.30785578933566565, 1.3192524695091907, 4896536000000, 
0.016361833624327145, 0.1133064850212436, 1.317419782843895, 4896541000000, 
0.021681943037265727, 0.14814724319468534, 1.3140315033358803, 4896546000000, 
0.0938189403620158, 0.4750126481576273, 1.306863411057647, 4896551000000, 
0.1461889121861218, 0.2718355221665752, 1.2975261903793838, 4896556000000, 
-0.184353869878739, 0.37394875945901357, 1.2869181004882948, 4896561000000, 
0.10794983260660035, 0.29908582489923274, 1.2756556829492787, 4896566000000, 
0.025813533433247868, 0.2312480124107489, 1.265208199302357, 4896571000000, 
-0.2701289087617553, 0.3392411719177886, 1.2549013575377705, 4896576000000, 
0.14134135798122363, 0.2060019043424286, 1.2466853501595838, 4896581000000, 
-0.36257841377818256, 0.31633740676492667, 1.2401027567646163, 4896586000000, 
-0.11992024081202239, 0.324919571634941, 1.2353935432882308, 4896591000000, 
0.05363376180044126, 0.24136134948635363, 1.2332005153535774, 4896596000000, 
-0.11187919097734181, 0.22140705784754844, 1.231839755556517, 4896601000000, 
-0.04266389575972642, 0.3236711414386275, 1.2321464836655813, 4896606000000, 
-0.07623410752739293, 0.1889247042383617, 1.2342524220642137, 4896611000000, 
-0.0864425190923463, 0.3247406253366086, 1.235894489633818, 4896616000000, 
-0.1372064251017577, 0.3089235557859381, 1.2388849314753063, 4896621000000, 
-0.049805056566974634, 0.24930600327664879, 1.2424090898450493, 4896626000000, 
-0.08823689571731584, 0.32675632207078686, 1.2453049695329135, 4896631000000, 
-0.13566278025257417, 0.3416056777019396, 1.2486342085893152, 4896636000000, 
0.1729811467490817, 0.2648169822296392, 1.2516448850748918, 4896641000000, 
-0.15655249349367037, 0.34561011819010373, 1.2534764740767226, 4896646000000, 
-0.10849478259827951, 0.29861689084901627, 1.2527484843167134, 4896651000000, 
-0.23394107975494258, 0.14858401854465125, 1.25057967561639, 4896656000000, 
0.1365709080285501, 0.3435548455468693, 1.2475162656683807, 4896661000000, 
0.06353244904340716, 0.37793645323118025, 1.2428523638132607, 4896666000000, 
-0.15011545411854438, 0.3521262425291695, 1.2377212163235272, 4896671000000, 
-0.0007982158465162335, 0.27005247269329086, 1.2330806426800518, 4896676000000, 
0.05124142037799624, 0.32251751566088466, 1.2285940347262234, 4896681000000, 
-0.21247046069263914, 0.24138983723098892, 1.2241749797813157, 4896686000000, 
0.06525943709931918, 0.3540507279695688, 1.2203493086252173, 4896691000000, 
-0.07850580896196524, 0.28214908680472794, 1.2173524040691182, 4896696000000, 
-0.27705751877119167, 0.15932852102250372, 1.2154239436604803, 4896701000000, 
0.016503688529327647, 0.39987452132536294, 1.2143025247666086, 4896706000000, 
-0.06221747062061984, 0.3019543401176812, 1.2144652168751284, 4896711000000, 
-0.26561327375999816, 0.12035225455568341, 1.2151508898685501, 4896716000000, 
0.07252597718941577, 0.47377787010509653, 1.21683072913156, 4896721000000, 
-0.12169672974272755, 0.3080829181260581, 1.218755495405511, 4896726000000, 
0.037255017924519435, 0.14551660786668116, 1.2205377215183706, 4896731000000, 
-0.0695320212038975, 0.4917825511809255, 1.2219575252534205, 4896736000000, 
-0.19510792327211454, 0.29098172596931604, 1.2231340135826123, 4896741000000, 
0.06288780157758467, 0.13273484653611695, 1.2247969967474597, 4896746000000, 
-0.016151652231759198, 0.5202771182246485, 1.223810299615296, 4896751000000, 
-0.058340269651642296, 0.31344098638236206, 1.220798267644968, 4896756000000, 
-0.05590736595484796, 0.0610641984737275, 1.2172563246816486, 4896761000000, 
0.16097284778985302, 0.5069715765725001, 1.2118265615925246, 4896766000000, 
-0.10208371503856944, 0.33366523414575855, 1.2055497125691312, 4896771000000, 
-0.08896489120057978, 0.16257433718130962, 1.1997476473081508, 4896776000000, 
0.08450997478484179, 0.46462459074179935, 1.193754285315047, 4896781000000, 
-0.18706675694472558, 0.32482499845253116, 1.1878268124381992, 4896786000000, 
-0.15610705458454455, 0.16305241058661749, 1.1836427134590461, 4896791000000, 
0.062113516916837114, 0.4185669849153637, 1.180049103974487, 4896796000000, 
-0.3190249678542772, 0.17039218304147732, 1.1775847047116828, 4896801000000, 
0.07472518198439791, 0.42013467567523977, 1.1764931533234229, 4896806000000, 
-0.05640899275381699, 0.31015672344950657, 1.1762351463990663, 4896811000000, 
-0.0968631818701452, 0.2049148091399789, 1.1761842508564158, 4896816000000, 
0.03746002648049924, 0.41335494928041727, 1.1754648103163494, 4896821000000, 
-0.06544708282578472, 0.1642515344058307, 1.1717634548061966, 4896826000000, 
0.01118684085097469, 0.2633788135410452, 1.1673399186689588, 4896831000000, 
0.039064896226980964, 0.50176464768739, 1.162598203715235, 4896836000000, 
-0.2999139113883532, 0.10968378802301011, 1.1577520724641432, 4896841000000, 
0.05826868883621041, 0.30674883278194937, 1.1533819315143374, 4896846000000, 
0.008640419119450543, 0.31213907332383123, 1.150070311606036, 4896851000000, 
0.004164509010334127, 0.3911031556107975, 1.1457389636632374, 4896856000000, 
-0.22893446581837765, 0.16530803756370419, 1.1427872112332762, 4896861000000, 
0.08123964317420436, 0.3173052123986359, 1.1400842298290055, 4896866000000, 
0.022010170797128574, 0.2992257626700341, 1.137599979057365, 4896871000000, 
0.04741272449584176, 0.39328131096136465, 1.1346179114403014, 4896876000000, 
-0.21967722183359487, 0.16192853403077925, 1.1326048204233878, 4896881000000, 
0.02753063497194009, 0.2805097850705665, 1.1309264592960901, 4896886000000, 
-0.011062825646698521, 0.30059669490239554, 1.1290314776816248, 4896891000000, 
-0.01742345497950661, 0.3130059685728159, 1.127154087917165, 4896896000000, 
-0.054586065246564675, 0.2721508797443322, 1.125845781089979, 4896901000000, 
-0.182082077301814, 0.2868207800771673, 1.1237058260276822, 4896906000000, 
0.013999552178023036, 0.284322959489416, 1.1224263447292044, 4896911000000, 
0.003232308404453838, 0.3027296716529545, 1.1220467491599637, 4896916000000, 
-0.04551934937866215, 0.2950678623473722, 1.1193276371119576, 4896921000000, 
-0.064251994527288, 0.29500505085559614, 1.116221501079031, 4896926000000, 
-0.06598812515427266, 0.3129436491791561, 1.1139428339871362, 4896931000000, 
-0.04795002363068189, 0.2768987181891644, 1.1100007242975214, 4896936000000, 
-0.035155444885730386, 0.26335830039522135, 1.1074245456404257, 4896941000000, 
-0.033584364432009, 0.29690872958543013, 1.1049479874107426, 4896946000000, 
-0.03092733106988797, 0.3000224847789804, 1.102530114152118, 4896951000000, 
-0.01781405782286109, 0.27285253919896546, 1.1004285661688251, 4896956000000, 
-0.045510609237154914, 0.2817974775746489, 1.0984402831835713, 4896961000000, 
-0.05925800134785508, 0.3003868309650398, 1.096301537896574, 4896966000000, 
-0.05294687097364759, 0.2865869948368496, 1.094894353654495, 4896971000000, 
-0.23776205660102478, 0.2819928488586555, 1.0932368321210644, 4896976000000, 
-0.22665990308593184, 0.32002180409790126, 1.094371535978453, 4896981000000, 
-0.14213484362091194, 0.2922579146871212, 1.0981225886438475, 4896986000000, 
-0.15616414606214402, 0.30796271630702843, 1.10315345367699, 4896991000000, 
-0.13777685726902458, 0.2929694487913013, 1.1074804768932138, 4896996000000, 
-0.025490588017559636, 0.2871063356025653, 1.1155404513198703, 4897001000000, 
-0.05331539317998743, 0.23282095236010086, 1.1215988872976927, 4897006000000, 
-0.11777799137500321, 0.28200164799886845, 1.1277261366656364, 4897011000000, 
-0.08186696584651092, 0.2851583117110469, 1.133752989222683, 4897016000000, 
-0.049155022649578564, 0.2764312694328572, 1.1382465771815276, 4897021000000, 
0.06254739524125888, 0.2936954124869763, 1.139776273336445, 4897026000000, 
0.09007667590097068, 0.3051200684379398, 1.138869773377652, 4897031000000, 
0.0829669932544824, 0.30164266457407385, 1.1352558458808306, 4897036000000, 
0.041812590019851416, 0.278417597430248, 1.130105650836855, 4897041000000, 
0.003092700325189046, 0.2976618041794744, 1.1230582516918184, 4897046000000, 
0.007260677019759017, 0.2737343925220615, 1.1156180954084012, 4897051000000, 
-0.003984327287524021, 0.3093056875266021, 1.1091183644591465, 4897056000000, 
-0.04146226820294885, 0.2911369289592464, 1.0998260136427735, 4897061000000, 
-0.06424672588388082, 0.26830475333388476, 1.0928099405870222, 4897066000000, 
-0.07688910728683171, 0.2761995982404882, 1.0874588178723166, 4897071000000, 
-0.10856860226484796, 0.2699037183119069, 1.0819262435421395, 4897076000000, 
-0.1334982407053062, 0.2823906722575876, 1.0786702789198013, 4897081000000, 
-0.09419532577663539, 0.2564415314996836, 1.0767933288611116, 4897086000000, 
-0.12456818642823518, 0.25514829654871457, 1.0767820751079349, 4897091000000, 
-0.08930849123106277, 0.262487979583988, 1.077896819969236, 4897096000000, 
-0.14882707382227034, 0.24613840815594923, 1.080458733270323, 4897101000000, 
-0.13259092618034676, 0.249719979162904, 1.083765223434758, 4897106000000, 
-0.026300846311844064, 0.24695045450449962, 1.088109464068946, 4897111000000, 
-0.08584895210192159, 0.24356344094493518, 1.0913851308907851, 4897116000000, 
-0.0822566960943531, 0.24879547243679573, 1.0950489282789553, 4897121000000, 
-0.04440841670405834, 0.2699030865565349, 1.097129197425494, 4897126000000, 
0.05112774110851013, 0.2909363224382033, 1.097487600662832, 4897131000000, 
0.04278709814898784, 0.27170021042953274, 1.095980655990502, 4897136000000, 
0.04642277438160749, 0.27555377858711877, 1.0937224436340705, 4897141000000, 
-0.01216781657029474, 0.24605402709213822, 1.088955460274858, 4897146000000, 
-0.0471528251239695, 0.25408969441475515, 1.0839602463852551, 4897151000000, 
-0.01547149687652189, 0.23056712379136057, 1.0793276238402263, 4897156000000, 
-0.04024545342681382, 0.2522405817859434, 1.0737067411290246, 4897161000000, 
-0.04713981228544094, 0.26621032594162114, 1.0688492532191562, 4897166000000, 
-0.07100134052618554, 0.2398199419574982, 1.0645659583979412, 4897171000000, 
0.009155642486822442, 0.27788370039799, 1.0605703312778672, 4897176000000, 
0.14253568299997893, 0.2119974218514816, 1.0555579015678045, 4897181000000, 
0.028330795560311033, 0.2430317249027861, 1.0478747505817583, 4897186000000, 
-0.04188711293341201, 0.25254746685798923, 1.0400813002211022, 4897191000000, 
-0.021309254125682558, 0.2314099648036111, 1.0291836886790462, 4897196000000, 
0.0524035387515492, 0.29086024282052203, 1.0175033461070842, 4897201000000, 
-0.1552297749134367, 0.18614634453552523, 1.0057356778735924, 4897206000000, 
0.04566016411689767, 0.3209553191254106, 0.9942073475528905, 4897211000000, 
-0.15476903650881568, 0.20877132380099228, 0.9841122811750711, 4897216000000, 
0.056388110506721247, 0.2658572488847425, 0.976304022707851, 4897221000000, 
-0.027882259521560676, 0.22652954145970522, 0.9697281557135256, 4897226000000, 
-0.15222069362015941, 0.18133214863452946, 0.9662369700167296, 4897231000000, 
0.06028215572257255, 0.2904763275931285, 0.9650554969817456, 4897236000000, 
-0.16759276233201834, 0.15756356837053462, 0.9661097281525968, 4897241000000, 
0.03745303208388828, 0.29781302726007414, 0.9693760485435159, 4897246000000, 
-0.15205293343352225, 0.181420852414713, 0.9738720467894689, 4897251000000, 
-0.011024162878458508, 0.24975292051384376, 0.9801627441366648, 4897256000000, 
-0.04162106902808749, 0.22523233987279723, 0.9869603107408806, 4897261000000, 
-0.17448463570893186, 0.21249853936896612, 0.9936599584702589, 4897266000000, 
0.03767099441174363, 0.28972217724261545, 1.0013359654313316, 4897271000000, 
-0.05997343829375141, 0.21940291578597337, 1.0066706420243976, 4897276000000, 
-0.1664980063489048, 0.21367843954646165, 1.0113591548039982, 4897281000000, 
0.0349907827650421, 0.282821608125627, 1.01555696818578, 4897286000000, 
-0.05581619558553844, 0.25896678536707796, 1.018886553225174, 4897291000000, 
-0.18531423918872936, 0.2061804112298764, 1.0187510569047773, 4897296000000, 
0.04085511299039764, 0.2807027114075287, 1.0155427361341458, 4897301000000, 
-0.04752826705509383, 0.2819491626176874, 1.010209092513708, 4897306000000, 
-0.18148611787066357, 0.1912359238633633, 1.0031178844674138, 4897311000000, 
0.05376336182231346, 0.2806871604081561, 0.9944104938851811, 4897316000000, 
-0.0635444252407118, 0.2428545714814083, 0.9854706958579408, 4897321000000, 
-0.20981060013675096, 0.19950692383304688, 0.9781526408300545, 4897326000000, 
0.03888175073486661, 0.2694401698223919, 0.9677928029612584, 4897331000000, 
-0.16290403819549465, 0.1911788589574835, 0.9610761587234434, 4897336000000, 
0.03527561433636646, 0.2611382131617525, 0.9552364868438914, 4897341000000, 
-0.03681951328033916, 0.2530456776289228, 0.9511420045216193, 4897346000000, 
-0.1651294536586539, 0.20255009092816753, 0.9495569233751692, 4897351000000, 
0.09389211587830695, 0.2975144902162586, 0.9489206188800252, 4897356000000, 
-0.09570305142879912, 0.22946006345615222, 0.9506251986011917, 4897361000000, 
-0.16272117983592507, 0.19269501932256858, 0.9538592377215458, 4897366000000, 
0.028552548642693493, 0.24749166789062735, 0.9575569456198789, 4897371000000, 
-0.1833981714080381, 0.21444286907389212, 0.9616249798697216, 4897376000000, 
0.0050324674686412114, 0.24578647976770024, 0.968391450762675, 4897381000000, 
-0.09974295621680362, 0.20831189297634325, 0.972396688388543, 4897386000000, 
-0.15632950347143587, 0.19760901660726735, 0.978821085803888, 4897391000000, 
0.04037388025335379, 0.26633324019983895, 0.9826132636697043, 4897396000000, 
-0.17301597678350392, 0.21585952259962476, 0.9838386716705395, 4897401000000, 
0.06513833681007547, 0.2659128619898926, 0.983153083500002, 4897406000000, 
-0.03505306120528973, 0.2531972623681558, 0.9803263632388349, 4897411000000, 
-0.14545952607696233, 0.23493281073172487, 0.9756648352981726, 4897416000000, 
0.021748218787211768, 0.2626269907136305, 0.9698803341505887, 4897421000000, 
-0.16913039901551805, 0.21021074100544535, 0.9640480828574336, 4897426000000, 
-0.05808739921499058, 0.2288132262410367, 0.9573808118297142, 4897431000000, 
0.01721078772399344, 0.25215181012989946, 0.9512452822207005, 4897436000000, 
-0.18114224560478992, 0.23843351259576995, 0.9456716777628849, 4897441000000, 
0.05245394137773515, 0.23451559358974294, 0.9403620091981401, 4897446000000, 
-0.03874713311186933, 0.23124801488814553, 0.9370475502600625, 4897451000000, 
-0.17194540609442432, 0.1923240721521624, 0.9342613452539869, 4897456000000, 
0.0023451299384400007, 0.2572642954652965, 0.9330617606085013, 4897461000000, 
-0.12190362763849245, 0.20660969989804262, 0.9335639493090416, 4897466000000, 
-0.0672932161380482, 0.2055561515874072, 0.9351874558364502, 4897471000000, 
-0.03066034736791812, 0.2182680254549239, 0.9377573969576326, 4897476000000, 
-0.03657800280576569, 0.2441364803667217, 0.9405224003001096, 4897481000000, 
-0.06578248778266296, 0.2511815731792042, 0.9438852651623527, 4897486000000, 
-0.0636743584438823, 0.23337678892146713, 0.9479259273532943, 4897491000000, 
-0.051177677028853064, 0.19257630932574055, 0.951974178544645, 4897496000000, 
-0.05623007159920813, 0.1937337054679077, 0.9536832872519669, 4897501000000, 
-0.05539313610770839, 0.21863220421290014, 0.9537881230338778, 4897506000000, 
-0.039470569820383446, 0.21444420564829553, 0.9528160978661111, 4897511000000, 
-0.04737889214789889, 0.19621963876104434, 0.9496784598893084, 4897516000000, 
-0.033670899399171575, 0.2131510447984116, 0.9460118705805868, 4897521000000, 
-0.03440754644367157, 0.20692860682788677, 0.9411225541315876, 4897526000000, 
-0.061182504507802576, 0.23693826414967253, 0.9359975724007831, 4897531000000, 
-0.03985603911332779, 0.22341492818039727, 0.9314001232607357, 4897536000000, 
-0.03732881053165261, 0.21607635673986517, 0.9271396174847626, 4897541000000, 
-0.04193848870164265, 0.25350830331486324, 0.9228140201207812, 4897546000000, 
-0.04291321391361562, 0.2087903988358695, 0.9195274272727268, 4897551000000, 
-0.0534142981215778, 0.2171528539657308, 0.9175312209397752, 4897556000000, 
-0.06846893101669282, 0.251418982521023, 0.9157855128531242, 4897561000000, 
-0.03887982354237375, 0.22827040864484374, 0.915388469041025, 4897566000000, 
-0.034705074847208035, 0.2584507536275314, 0.9160509847470487, 4897571000000, 
-0.04872084281189127, 0.22466152363962322, 0.9176453261978201, 4897576000000, 
-0.034588723306564484, 0.20505615802078409, 0.9199517242178648, 4897581000000, 
-0.0359193111881042, 0.21633130268498874, 0.9224010277507935, 4897586000000, 
-0.0656375038644224, 0.22404849051882664, 0.9254673919232266, 4897591000000, 
-0.024882542655397005, 0.2624094499674408, 0.9282563093208648, 4897596000000, 
-0.07826892734860613, 0.21426261861823484, 0.930448244419678, 4897601000000, 
-0.06260123744636434, 0.2249214162511517, 0.9305072866698865, 4897606000000, 
-0.037646741521658623, 0.250112110651084, 0.9291636372384814, 4897611000000, 
-0.05542871838613633, 0.222341678206671, 0.9262706235149847, 4897616000000, 
-0.01777641363306142, 0.2667033233119782, 0.9234804264169663, 4897621000000, 
-0.06635910119881916, 0.2300217100413688, 0.9188785924063787, 4897626000000, 
-0.045591733715731164, 0.21679749718416036, 0.9149295792365769, 4897631000000, 
-0.02520995880232529, 0.21553018065741159, 0.9104274136888403, 4897636000000, 
-0.022708492981486472, 0.2067635747790686, 0.9061680438954839, 4897641000000, 
-0.05075619374202967, 0.21055694097172942, 0.9026293769545207, 4897646000000, 
-0.044297176936439024, 0.24246980202529148, 0.8993761349909039, 4897651000000, 
-0.08683450697090549, 0.2415507442974676, 0.8970975551914547, 4897656000000, 
-0.059772265836282014, 0.210323422277989, 0.896371757493591, 4897661000000, 
-0.039676152641859225, 0.24893604143006628, 0.8957619779913779, 4897666000000, 
-0.045403743553820396, 0.21692461411072292, 0.8949820587110242, 4897671000000, 
-0.01764449021798912, 0.2477725087133713, 0.8932260184109855, 4897676000000, 
-0.05996924560534226, 0.20880972384147392, 0.8923575857610946, 4897681000000, 
-0.035401291939985986, 0.2098094426293448, 0.8902443340738919, 4897686000000, 
-0.02501456108766804, 0.2242499715326107, 0.8887780083512758, 4897691000000, 
-0.07281546073335532, 0.2306165256549413, 0.8873238696033484, 4897696000000, 
-0.04753778550751164, 0.21507395442650154, 0.8855096033507055, 4897701000000, 
-0.06898881317489866, 0.22446829958586426, 0.8851160225593213, 4897706000000, 
-0.05370314276883264, 0.2003665919766006, 0.8841436029617314, 4897711000000, 
-0.031309022788278504, 0.1718742126767624, 0.8836284230878383, 4897716000000, 
-0.045001986246617685, 0.2091170090342906, 0.8839162978589651, 4897721000000, 
-0.07913915662552756, 0.21458031662711036, 0.8836361489788633, 4897726000000, 
-0.032827027279079775, 0.22760303861840955, 0.8847182930462184, 4897731000000, 
-0.0859207216124018, 0.2382005693918854, 0.8852213592162883, 4897736000000, 
-0.06842048503325027, 0.21440629902771768, 0.8862493065710733, 4897741000000, 
-0.02869730477164549, 0.2196475007265337, 0.887093119580827, 4897746000000, 
-0.0750641649158165, 0.23104845079975994, 0.8877926727558161, 4897751000000, 
-0.06497692936416355, 0.22092772129490762, 0.8892885727723623, 4897756000000, 
-0.048528574894791045, 0.20308790236750054, 0.8901217581560998, 4897761000000, 
-0.05157248659631049, 0.2105257088073271, 0.8908547199805025, 4897766000000, 
-0.02827042148980136, 0.21564330784982713, 0.8907211155752205, 4897771000000, 
-0.03466443414857298, 0.24522645631772996, 0.8885791593880747, 4897776000000, 
-0.04930193076311355, 0.21445080286914356, 0.8860586067048921, 4897781000000, 
-0.08857501137470875, 0.17638535928692783, 0.881798827845189, 4897786000000, 
-0.07238889265407988, 0.2225054706733849, 0.8776199163303807, 4897791000000, 
-0.030182078666750704, 0.23395044616839175, 0.873075903840103, 4897796000000, 
-0.059719605151442576, 0.21017731330440317, 0.8690233117432345, 4897801000000, 
-0.07013565990262087, 0.20150391203781362, 0.8640976677760533, 4897806000000, 
-0.0671354212211204, 0.19787961796897677, 0.8614776550032436, 4897811000000, 
-0.04372327638357647, 0.224886968397137, 0.8585901992813578, 4897816000000, 
-0.02938127815443323, 0.24142980656614113, 0.8569405788007658, 4897821000000, 
0.0062406839864984215, 0.2151457282776416, 0.8565418980984644, 4897826000000, 
-0.030469085529133397, 0.1908527575325446, 0.8564343787046598, 4897831000000, 
-0.04525170804599522, 0.20879657275047186, 0.8571750482910967, 4897836000000, 
-0.05878716180647181, 0.21220273861557631, 0.8589416991191772, 4897841000000, 
-0.05430652603748232, 0.2069897081778909, 0.8605321552485292, 4897846000000, 
-0.0764091395609297, 0.2135802564897074, 0.8635654180604652, 4897851000000, 
-0.04628821942095172, 0.20751975368159548, 0.8660958133742497, 4897856000000, 
-0.05461660107116914, 0.1992589501672229, 0.8688035233624766, 4897861000000, 
-0.04136814153744549, 0.2206575496953288, 0.8710740075273902, 4897866000000, 
-0.05231494341572921, 0.21504050549319198, 0.873216919079708, 4897871000000, 
-0.04803287822508039, 0.21134113693907522, 0.8732394158716497, 4897876000000, 
-0.059212685480183005, 0.19873647382229565, 0.872038660337477, 4897881000000, 
-0.03702258198487051, 0.21885267115919763, 0.8693576174432807, 4897886000000, 
-0.03441153574515252, 0.23365288887215413, 0.8654421770640309, 4897891000000, 
-0.05097506534580459, 0.20502067990235145, 0.8609951657683386, 4897896000000, 
-0.064818118754118, 0.20358607842445078, 0.8562653788494605, 4897901000000, 
-0.04976685695137235, 0.214399765267605, 0.8518365988460869, 4897906000000, 
-0.036772954375729555, 0.2186683680027925, 0.8473520510938288, 4897911000000, 
-0.05174548432511053, 0.21058826663789523, 0.8434692883208025, 4897916000000, 
-0.03671069339874115, 0.21087462153810022, 0.8410813257822103, 4897921000000, 
-0.016187267910421216, 0.23017026645024377, 0.838577245030196, 4897926000000, 
-0.05219940533999688, 0.20361889462929889, 0.8372197899475344, 4897931000000, 
0.05507059356080538, 0.1531071569615215, 0.8369805784259848, 4897936000000, 
-0.16338462903039855, 0.3068515989033385, 0.8376395592999055, 4897941000000, 
-0.0522392893555063, 0.20358566299306466, 0.8391067069353151, 4897946000000, 
-0.0668791757258937, 0.19959600808626518, 0.8411763814277392, 4897951000000, 
-0.06129193426924718, 0.2006832666452568, 0.8440060081633709, 4897956000000, 
-0.05211836318801015, 0.21146656389755464, 0.846609434838566, 4897961000000, 
-0.07957251471687476, 0.19656411759283662, 0.8487758194477687, 4897966000000, 
-0.03927257307446444, 0.2277438107172892, 0.8521845872048585, 4897971000000, 
-0.09583138154394863, 0.23298060240445365, 0.8534821773398764, 4897976000000, 
-0.04278914437408542, 0.1973853893574169, 0.853331322866842, 4897981000000, 
0.08013087222528655, 0.0970059627590238, 0.8514337666669723, 4897986000000, 
-0.173144243265618, 0.2907934025718256, 0.8492352905697955, 4897991000000, 
-0.03569130617021877, 0.20227065757743035, 0.8455604046332824, 4897996000000, 
0.09263109007792804, 0.1329065930352605, 0.8418619069155031, 4898001000000, 
-0.18250364397762403, 0.2602305427067627, 0.8382333801624996, 4898006000000, 
0.07371177900384268, 0.15015456021869864, 0.8338048153517885, 4898011000000, 
-0.17106781211705835, 0.2838684075168515, 0.8299259703878133, 4898016000000, 
-0.04109497295321407, 0.19504669749770095, 0.8270029578718527, 4898021000000, 
0.0340196580214393, 0.16977345001270783, 0.8242677564745974, 4898026000000, 
-0.1376063451422584, 0.2096846465409079, 0.8227246170033239, 4898031000000, 
0.06716412658520646, 0.19382247304742353, 0.8218308551314513, 4898036000000, 
-0.16186407837833083, 0.2518708552806246, 0.8218020284647283, 4898041000000, 
0.03720603709129177, 0.20531280919765207, 0.8218368917891634, 4898046000000, 
-0.13298508173629847, 0.21728096338112027, 0.8231265398124125, 4898051000000, 
0.020070877043265815, 0.21642724185364604, 0.8254448593821504, 4898056000000, 
-0.04966208434689428, 0.22615508281957022, 0.8272407442928131, 4898061000000, 
-0.14475415141245446, 0.20702736288619278, 0.8299638658276928, 4898066000000, 
0.033615969127759916, 0.21160864418058947, 0.8321431367152291, 4898071000000, 
-0.11460955195909278, 0.15884982810142473, 0.8343636280958351, 4898076000000, 
0.008754222279397914, 0.2479515206278414, 0.8349397808627675, 4898081000000, 
-0.0244972813553533, 0.22445577686386264, 0.8337815322589834, 4898086000000, 
-0.13174568218071514, 0.17148955559322615, 0.8317827159330088, 4898091000000, 
0.033020507280000486, 0.24678826718787422, 0.8286632811607672, 4898096000000, 
-0.13467353074751912, 0.16794584251604036, 0.8256233903082305, 4898101000000, 
-0.07109617654898283, 0.1739112283584893, 0.8226752851032291, 4898106000000, 
-0.01336016527857617, 0.2690778797615414, 0.8179740452438957, 4898111000000, 
-0.1112701586118102, 0.14017296308488428, 0.8146772473524044, 4898116000000, 
0.0018943051555205207, 0.28694267395938106, 0.81170728752991, 4898121000000, 
-0.04770372946528163, 0.19004302503724083, 0.8085189636749439, 4898126000000, 
-0.10232362283986522, 0.13799595869534964, 0.8069689928700823, 4898131000000, 
0.028392368695686766, 0.2904685184868642, 0.8061474793504243, 4898136000000, 
-0.08421243701685976, 0.08199586387826095, 0.8054111746587724, 4898141000000, 
-0.023557568213861, 0.2929838660982326, 0.805253929410054, 4898146000000, 
-0.06595129381019756, 0.2320479938881996, 0.8037778779602797, 4898151000000, 
-0.09254654855821977, 0.09503573173832112, 0.8030657683120156, 4898156000000, 
-0.009277316639355597, 0.3249943055713569, 0.8018702520421198, 4898161000000, 
-0.11811007462522327, 0.07232650095313618, 0.8002196803267367, 4898166000000, 
-0.0812436580235686, 0.23813390334196566, 0.7996336398130688, 4898171000000, 
-0.03511457579643001, 0.3440084275399662, 0.7979882357152022, 4898176000000, 
-0.10813894773525838, 0.06320017758938938, 0.7977092303085627, 4898181000000, 
-0.05090874246975221, 0.3566770791302933, 0.7973392790945144, 4898186000000, 
-0.06207534549631368, 0.22220811630780057, 0.7961117381090881, 4898191000000, 
-0.05905959652368094, 0.07894018516036688, 0.7967290490871463, 4898196000000, 
-0.09548322950836995, 0.3417532209741514, 0.7971292363164088, 4898201000000, 
-0.19146277897479794, -0.028784782548446134, 0.79846603285782, 4898206000000, 
0.06938119893997283, 0.26137702805234664, 0.8018252103899183, 4898211000000, 
-0.26456612584996936, 0.3384919797839784, 0.8046991626255725, 4898216000000, 
-0.0770654508927839, 0.031165401319122002, 0.807852199084176, 4898221000000, 
-0.1299830900680047, 0.1977351798944213, 0.8126577884710267, 4898226000000, 
-0.218386547614205, 0.28100218195971416, 0.8186235941966272, 4898231000000, 
0.012996613075215655, 0.3799082200947292, 0.823524101986402, 4898236000000, 
0.043746301890731296, 0.018947437779166444, 0.8285218879057046, 4898241000000, 
-0.17930415211273212, 0.26881702944350955, 0.8327564277737364, 4898246000000, 
-0.043333162207535, 0.37262742979842556, 0.8353795324442819, 4898251000000, 
0.0011772611005963704, -0.0163833451425955, 0.8365992668687783, 4898256000000, 
-0.020225725891126197, 0.23391039480103162, 0.8363839200850127, 4898261000000, 
-0.0028844132651195493, 0.21872379595530084, 0.834792640553985, 4898266000000, 
-0.037600261667022655, 0.19461756711208397, 0.8328787303995249, 4898271000000, 
-0.014955114139373418, 0.213883368210602, 0.8304976329105428, 4898276000000, 
0.004369521551589068, 0.21192528670400532, 0.8271441657931082, 4898281000000, 
0.003346875667058699, 0.38429182608092827, 0.8231474977716616, 4898286000000, 
-0.1066487159826566, -0.009592045939335478, 0.820267033168657, 4898291000000, 
-0.007536980391897073, 0.21768491785369012, 0.8169067395639441, 4898296000000, 
-0.017106087105261875, 0.19513156124340875, 0.814321750016439, 4898301000000, 
-0.04373379315041977, 0.2513224458798125, 0.8116686003750091, 4898306000000, 
-0.11795460437324284, 0.2007840981784743, 0.8099947733675665, 4898311000000, 
-0.01666169709585479, 0.2187617375674201, 0.8091976022543049, 4898316000000, 
-0.09706419284935558, 0.2202722253391121, 0.809207565891806, 4898321000000, 
-0.10172414564972852, 0.21570282251154282, 0.8096858307249574, 4898326000000, 
-0.07727885198547818, 0.19762423464544546, 0.8103357116123969, 4898331000000, 
-0.03522271915464445, 0.243604889324977, 0.8109813957699329, 4898336000000, 
-0.060972159774809076, 0.18805501333115981, 0.8132547660212547, 4898341000000, 
-0.05409332541472545, 0.4112136864361888, 0.8143373319260394, 4898346000000, 
-0.0038243805066072722, 0.032413914756159776, 0.8146337588685445, 4898351000000, 
0.015780088745742056, 0.2119631409789002, 0.8138267888869807, 4898356000000, 
-0.025103734315875093, 0.2098429697862389, 0.8123333231509205, 4898361000000, 
-0.020220216331503383, 0.3846359340830859, 0.8107777191035306, 4898366000000, 
-0.23358038771633946, 0.02773250011759812, 0.808398943781686, 4898371000000, 
0.023308593083045132, 0.2128630824737022, 0.8063793944981817, 4898376000000, 
-0.005670191151093934, 0.2167745492473925, 0.8044550494488324, 4898381000000, 
-0.024376082714947622, 0.32085418950058897, 0.8020611696037594, 4898386000000, 
-0.23822243714257918, 0.07580243644436997, 0.8000466494836178, 4898391000000, 
0.01690493375113161, 0.23497438329859763, 0.7988908642394474, 4898396000000, 
-0.04023091065321269, 0.17637001004332303, 0.7984173783419432, 4898401000000, 
-0.08463745597717304, 0.20106028407021648, 0.7977536746534817, 4898406000000, 
-0.09700491086585918, 0.2595107467984644, 0.797251678220026, 4898411000000, 
-0.1165419958118251, 0.24438130572265004, 0.7973477043052911, 4898416000000, 
-0.04298122388840474, 0.1657722350198246, 0.7975168064622189, 4898421000000, 
-0.02556497425654663, 0.29881709381836985, 0.7981824907253133, 4898426000000, 
-0.11102591105377707, 0.1323364626487983, 0.7982575554949611, 4898431000000, 
-0.09606355255192327, 0.21756870239972614, 0.7987627925559873, 4898436000000, 
-0.05220980564394697, 0.16018348814470243, 0.7999233456461738, 4898441000000, 
-0.008251701769642496, 0.3690124364082827, 0.8007106541242611, 4898446000000, 
-0.1022986219465482, 0.08795003355533064, 0.8009757155134167, 4898451000000, 
0.009765351949118336, 0.15718397546907456, 0.8001560509775337, 4898456000000, 
0.01384026595912037, 0.33049746112261, 0.7982686263714882, 4898461000000, 
-0.17606400165247416, 0.1237514815004316, 0.7960750798694931, 4898466000000, 
0.006061595222088885, 0.22557164599357066, 0.7938750427238784, 4898471000000, 
-0.007604117908444626, 0.1410317514286935, 0.791483322396517, 4898476000000, 
-0.12701163752331085, 0.23355871804116057, 0.7890962674647289, 4898481000000, 
-0.03906218173854201, 0.24796342993604903, 0.7866847931486585, 4898486000000, 
-0.008501324374455995, 0.14999153762822393, 0.7850163385485806, 4898491000000, 
-0.13628063468964352, 0.2421156254412595, 0.7828473554852081, 4898496000000, 
-0.05379715388159727, 0.2430603140361375, 0.7815654431855876, 4898501000000, 
-0.0075662775440505595, 0.1428073369791086, 0.7811316618621792, 4898506000000, 
0.0049773548550229915, 0.30264618557930195, 0.7804319843264004, 4898511000000, 
-0.1170455879144536, 0.1651531940934351, 0.7796680419613974, 4898516000000, 
-0.08802885810410492, 0.19273322687246894, 0.7799941308508745, 4898521000000, 
-0.028489940634131766, 0.2668977389473228, 0.7804052151655534, 4898526000000, 
-0.08581409758101738, 0.17145659135813276, 0.7808285903376876, 4898531000000, 
-0.013986964025850174, 0.29875338991932837, 0.7808610336267277, 4898536000000, 
-0.06350067270070392, 0.24189761139745275, 0.7806212403342305, 4898541000000, 
-0.02441231446894325, 0.11344030102480379, 0.7797567323538753, 4898546000000, 
0.06207996184604555, 0.2612024090632968, 0.7788493689091832, 4898551000000, 
-0.06477232408335082, 0.34777448944244876, 0.7751279303852543, 4898556000000, 
-0.07139314287143478, 0.09024014523579024, 0.7706190898389322, 4898561000000, 
0.027342223175497837, 0.21925832087269506, 0.7650701883547883, 4898566000000, 
0.03280569946808143, 0.2846742809769574, 0.7574625489889169, 4898571000000, 
-0.13918437706660172, 0.11078939596049794, 0.7504163419315274, 4898576000000, 
0.018021761115109388, 0.33456803346342234, 0.7430094588159527, 4898581000000, 
-0.061839081495869364, 0.21564368771730016, 0.735262359580791, 4898586000000, 
-0.13704595283674864, 0.10543072460013649, 0.7297678334031712, 4898591000000, 
0.027177217674107006, 0.2851061613044273, 0.7252274305841583, 4898596000000, 
-0.0928251683797926, 0.07047388246880743, 0.7213240406640693, 4898601000000, 
-0.08585610494304087, 0.19690045887592203, 0.7194572652650411, 4898606000000, 
0.024462331149195576, 0.28675879690935824, 0.7191298891879015, 4898611000000, 
-0.14605809935027134, 0.07610957023699039, 0.7202403764572984, 4898616000000, 
0.06111724588601672, 0.2945815972117705, 0.7220918335912123, 4898621000000, 
-0.1397237631502496, 0.07062405557268026, 0.7240586212531596, 4898626000000, 
0.004532602590296621, 0.3315372795476586, 0.7259194172782372, 4898631000000, 
-0.06945027542337054, 0.2011358315965059, 0.72724001022245, 4898636000000, 
-0.1389971092809684, 0.10867473735727468, 0.7293036380900458, 4898641000000, 
-0.02618913618575918, 0.30147535256682634, 0.7306994472917635, 4898646000000, 
-0.13919593568764974, 0.11115961534217823, 0.7318084841008275, 4898651000000, 
-0.10571306328905089, 0.1839102297793882, 0.7328615057762788, 4898656000000, 
0.05161856084654597, 0.26724997471754386, 0.7324534997604442, 4898661000000, 
-0.16992601433099858, 0.07630034516485312, 0.7328903945523559, 4898666000000, 
0.016868297716345786, 0.24541662590171198, 0.7326615400390794, 4898671000000, 
-0.14069779412587946, 0.09753899031639787, 0.731670923460423, 4898676000000, 
-0.054395221135625546, 0.23707684350182834, 0.7312296304300202, 4898681000000, 
0.020140253325410952, 0.29565276928071704, 0.7295546395818899, 4898686000000, 
-0.135960273832085, 0.10250775310684102, 0.7291929671192053, 4898691000000, 
-0.001660680029572103, 0.2842900022906143, 0.7278877769597254, 4898696000000, 
-0.11728783894642114, 0.08824887957699047, 0.7265922153910388, 4898701000000, 
-0.030899209870583463, 0.18077038244281193, 0.7264327556097283, 4898706000000, 
0.005548732976949657, 0.2688726795958705, 0.7253763488697215, 4898711000000, 
-0.12788453853910683, 0.09526634912254753, 0.7244781423529485, 4898716000000, 
-0.05491451508791727, 0.19656817876405536, 0.7246633684970659, 4898721000000, 
0.016826806226180754, 0.3059622503977786, 0.7229028096918276, 4898726000000, 
-0.13999726584663325, 0.09231114825931304, 0.7215566398926548, 4898731000000, 
-0.031101215428430064, 0.21111838599450727, 0.7200331096738174, 4898736000000, 
0.021562914705280732, 0.24743449937561718, 0.717166068075316, 4898741000000, 
-0.13782972357210643, 0.09636498635947291, 0.7152559455008664, 4898746000000, 
-0.0749539761715583, 0.20075147928538206, 0.7131858386721522, 4898751000000, 
-0.11916525451875744, 0.2991517513218708, 0.7122185245844279, 4898756000000, 
-0.07380920244138371, 0.08952691692427135, 0.7121320693128685, 4898761000000, 
0.006769400856623511, 0.16950169435275486, 0.7126569617726005, 4898766000000, 
-0.19920187185133112, 0.10072274804384475, 0.7133120360703508, 4898771000000, 
-0.09919535910921351, 0.16718227343477055, 0.7158765894950301, 4898776000000, 
0.04455874737644009, 0.2379663103330024, 0.7183917238991875, 4898781000000, 
-0.1414169199185137, 0.17327700194858078, 0.7206598643658421, 4898786000000, 
-0.23000782415366755, 0.08465580938247225, 0.7242939025058583, 4898791000000, 
-0.13638491191694221, 0.1767983897711032, 0.7293009397323074, 4898796000000, 
-0.00340594869288937, 0.2699626695711169, 0.7339213547696672, 4898801000000, 
0.08422629579614993, 0.22972164457714594, 0.7389432902739235, 4898806000000, 
-0.21970195573843276, 0.14868734842740383, 0.7427400781642036, 4898811000000, 
-0.07098839670488921, 0.19244046366412232, 0.7466777055889124, 4898816000000, 
-0.05114364757703232, 0.20924193580057618, 0.7504173191720036, 4898821000000, 
-0.02354044801459876, 0.19391874190655603, 0.7529329364506815, 4898826000000, 
-0.00017953606854927487, 0.16605036923262972, 0.7536815154305426, 4898831000000, 
0.03207616434521508, 0.18451458136038873, 0.7532208485137245, 4898836000000, 
0.012891856389849674, 0.16384745278953622, 0.7519532290661036, 4898841000000, 
-0.005980498324842143, 0.18810030271059786, 0.74940446425653, 4898846000000, 
-0.014261920140636156, 0.23055268139561236, 0.7462027877761099, 4898851000000, 
0.0010682315083653422, 0.22450311467356535, 0.7420849033212277, 4898856000000, 
0.002608947001873866, 0.22328853681784055, 0.7377918851404466, 4898861000000, 
-0.027342435618555195, 0.20452668279732505, 0.7340485281198842, 4898866000000, 
-0.029766650913346432, 0.21219664867006285, 0.7300872675321233, 4898871000000, 
-0.06986985765559683, 0.1889367096557294, 0.7265465320358279, 4898876000000, 
-0.08066306432126918, 0.19143952014982618, 0.7243087771841809, 4898881000000, 
-0.09111399797244078, 0.2083878029533381, 0.7217123939764453, 4898886000000, 
-0.09439619213347614, 0.19536759709070695, 0.720681520599603, 4898891000000, 
-0.08286031340011457, 0.1657751357553847, 0.7205147668609656, 4898896000000, 
-0.07884073647116657, 0.17406400549548787, 0.7208523723278853, 4898901000000, 
-0.0795771078089749, 0.17480186344618287, 0.721627695999887, 4898906000000, 
-0.09303587411224573, 0.21975246826457126, 0.7238267001720159, 4898911000000, 
-0.09669244383900798, 0.20361226149497563, 0.7257848705165107, 4898916000000, 
-0.08926654258491057, 0.18075148608383532, 0.7283926839152306, 4898921000000, 
-0.07557802131048721, 0.1606786725326047, 0.7304047827626031, 4898926000000, 
-0.045552002415740075, 0.19004187767463585, 0.7316172478750177, 4898931000000, 
-0.011229319532328133, 0.16657143850124573, 0.7319957024415557, 4898936000000, 
0.17745514968378434, 0.19418568258743782, 0.7304205201665401, 4898941000000, 
0.0023759716944398834, 0.17531624781089697, 0.7261694818354646, 4898946000000, 
-0.20862029028905826, 0.2868894777321752, 0.7197575771340999, 4898951000000, 
0.08348549402848723, 0.14283404004663625, 0.7132193966764268, 4898956000000, 
0.07064398309334849, 0.24541068161343216, 0.7055112407092221, 4898961000000, 
-0.12439922497284917, 0.12432988113555637, 0.6969404671430943, 4898966000000, 
-0.04007437013696198, 0.19798262653371743, 0.6895046884184401, 4898971000000, 
0.04962082119577931, 0.2271921541431943, 0.6821121226828943, 4898976000000, 
-0.1456580452890355, 0.11430666148440197, 0.6758404071063792, 4898981000000, 
0.031966232423668556, 0.24482788486414464, 0.6707860113697263, 4898986000000, 
-0.15694792440222405, 0.13742101476727692, 0.667225504985316, 4898991000000, 
-0.07294782548220022, 0.20327891045542815, 0.6661553797913609, 4898996000000, 
0.07490844072215519, 0.23053287365799868, 0.6663548973898644, 4899001000000, 
-0.15063532241181182, 0.09784859452732553, 0.6677513763318835, 4899006000000, 
-0.018180373825344105, 0.1769702570406545, 0.670490525297226, 4899011000000, 
0.037380459185208915, 0.2216209675971545, 0.6743780246328457, 4899016000000, 
-0.161529871260301, 0.11483237878518042, 0.6790717729110493, 4899021000000, 
0.08105008474192354, 0.2629373943320991, 0.6827896821452828, 4899026000000, 
-0.10421042780740697, 0.13072686760827296, 0.6866790783666852, 4899031000000, 
-0.052873637745801, 0.1738737685823045, 0.6908025251776939, 4899036000000, 
0.03154084381959979, 0.22573986921541497, 0.6918225855319389, 4899041000000, 
-0.18647150161812748, 0.09681953364912002, 0.6934626952188662, 4899046000000, 
-0.06096701275609003, 0.1958403487296102, 0.693124820066806, 4899051000000, 
0.06679851940578027, 0.22120149186196753, 0.6918276488291926, 4899056000000, 
-0.1537713158706832, 0.11460707553996627, 0.6899341367891205, 4899061000000, 
0.05022280740769562, 0.2407981761838222, 0.6872748808604342, 4899066000000, 
-0.042555893380174376, 0.17317413354144456, 0.6840271101355186, 4899071000000, 
-0.1562524682798869, 0.1426173505330016, 0.6808025477165663, 4899076000000, 
0.027622933252710247, 0.23042229485407226, 0.6779855543728144, 4899081000000, 
-0.17359233503097327, 0.12258202105692328, 0.6748638053687784, 4899086000000, 
-0.05450467523789932, 0.18021561329530117, 0.6725264908790825, 4899091000000, 
0.0024602552325485236, 0.23012100173972713, 0.6705316076577186, 4899096000000, 
-0.13922772127052468, 0.10827018870393793, 0.6676802519448634, 4899101000000, 
-0.06231463012272343, 0.16659514942333775, 0.6658091298199205, 4899106000000, 
0.04069601419915402, 0.2606081940837855, 0.663457797505911, 4899111000000, 
-0.15882498753481555, 0.11193682687984328, 0.6619382216947736, 4899116000000, 
-0.04659015594668537, 0.19485413023095366, 0.6611551162817565, 4899121000000, 
0.04869551186477453, 0.18868009288549684, 0.6597610446487655, 4899126000000, 
-0.13423218166029427, 0.0907836105983578, 0.6597842563370995, 4899131000000, 
0.04541862941151169, 0.24419650841673424, 0.6597603520132204, 4899136000000, 
-0.19368720251527244, 0.13107677692430916, 0.660308376040187, 4899141000000, 
-0.05452896214952622, 0.20486925647092707, 0.6609705883678995, 4899146000000, 
0.04007399092883271, 0.22262264007933413, 0.6619341063024131, 4899151000000, 
-0.15928003544665595, 0.15077167567826183, 0.663596144687075, 4899156000000, 
0.018931974204136615, 0.23228365113178825, 0.6654093061428773, 4899161000000, 
-0.13524663272011245, 0.09511612765266153, 0.6663762186799425, 4899166000000, 
-0.07724057421318349, 0.1558683831647995, 0.668045324025496, 4899171000000, 
0.04504219582788091, 0.256849095123685, 0.6689842870869164, 4899176000000, 
-0.14505106323731978, 0.11790547230510577, 0.6699081995618142, 4899181000000, 
-0.07572876616206688, 0.19834339553922628, 0.6702428299112392, 4899186000000, 
0.015635282963699117, 0.20669600607958918, 0.6709625199585845, 4899191000000, 
-0.1840383151701942, 0.11328045484431679, 0.6706502964969726, 4899196000000, 
-0.04095211974868827, 0.20270410586349813, 0.6694799786451981, 4899201000000, 
0.041538945593635745, 0.25405455696222834, 0.6680541697514062, 4899206000000, 
-0.16447468637116808, 0.1014043454573392, 0.6655049058337883, 4899211000000, 
-0.0617579091045907, 0.16557433029259733, 0.6627679856571349, 4899216000000, 
0.06124914647838922, 0.20012850898415468, 0.6589966090662193, 4899221000000, 
-0.20834519083208533, 0.1318085484656479, 0.6565269156908229, 4899226000000, 
-0.05285376364042716, 0.19169170075243777, 0.6533027707008373, 4899231000000, 
0.04226388230527301, 0.2101442893078832, 0.6505337366511477, 4899236000000, 
-0.17854834742882697, 0.12815792190399392, 0.6486939033063515, 4899241000000, 
-0.03993681095836267, 0.17445847704129547, 0.6472638276997857, 4899246000000, 
-0.042309908385068165, 0.17499644410361936, 0.6470267552470117, 4899251000000, 
-0.04921364970434021, 0.15770223362618555, 0.6466783484948233, 4899256000000, 
-0.07246152765293208, 0.15592769002506007, 0.6473153459306626, 4899261000000, 
-0.06975616603207953, 0.20899790248131833, 0.6482682086866559, 4899266000000, 
0.027924182643162147, 0.19541488093002174, 0.6495520453002992, 4899271000000, 
-0.18343352421752532, 0.14918859360711836, 0.6508974628683573, 4899276000000, 
-0.07358282608014376, 0.19848801402372626, 0.6532713792601059, 4899281000000, 
-0.05131090572270637, 0.21523907260547936, 0.654977878103004, 4899286000000, 
0.03657651294167395, 0.20218995189294037, 0.6569211665412871, 4899291000000, 
-0.12675572983298394, 0.13919390033417212, 0.6581536684193283, 4899296000000, 
-0.056440091624697424, 0.15061763231381506, 0.6590079155229851, 4899301000000, 
-0.0686612933193731, 0.1675518846884453, 0.6591219752268962, 4899306000000, 
-0.0523379612463092, 0.1839983104036679, 0.6576585677917002, 4899311000000, 
-0.06416751457087196, 0.20764887525906478, 0.6557779648190625, 4899316000000, 
-0.06153642064929119, 0.18152994972567826, 0.6538122433489236, 4899321000000, 
-0.0949070729247136, 0.18505573233734907, 0.6508516076842497, 4899326000000, 
-0.030429581885095966, 0.19897656399162564, 0.6480376402020946, 4899331000000, 
-0.04076190799087537, 0.13721019623135583, 0.6448261551649788, 4899336000000, 
-0.032087439255797476, 0.1855453350166137, 0.6427703658461674, 4899341000000, 
-0.06511774423209266, 0.168912281702131, 0.6401025316017162, 4899346000000, 
-0.03996240595252639, 0.18765691466188794, 0.6385115349978892, 4899351000000, 
-0.04365225868856939, 0.20511058320732195, 0.6371450817678628, 4899356000000, 
-0.047609683275546016, 0.16695292983827076, 0.6366342801468275, 4899361000000, 
-0.045570217602551914, 0.20562263973900252, 0.6362148667688867, 4899366000000, 
-0.039291439080802446, 0.15763667247676366, 0.6369114829244495, 4899371000000, 
-0.020024806435194963, 0.16590035399254335, 0.6381979474137165, 4899376000000, 
-0.05880339986683911, 0.1539845809009127, 0.6393967556551661, 4899381000000, 
-0.04264645889685942, 0.19019098275579774, 0.6413744829880291, 4899386000000, 
-0.06440613337831709, 0.19807404909391224, 0.6429505793043552, 4899391000000, 
-0.0629473476013489, 0.17833431694400387, 0.6449146844675043, 4899396000000, 
-0.056895360046701544, 0.17443446903952384, 0.6462433629491858, 4899401000000, 
-0.0582493549909886, 0.15094898996649952, 0.6464232745756855, 4899406000000, 
-0.05470514892499722, 0.1773676496452101, 0.6463442371619569, 4899411000000, 
-0.04875495525054669, 0.16408808259682994, 0.6453765120234709, 4899416000000, 
-0.06610991195916673, 0.17245716672694447, 0.6435965471835581, 4899421000000, 
-0.059545530502541674, 0.17869629529825337, 0.6415564578465764, 4899426000000, 
-0.04224505641203799, 0.179993216375092, 0.6392284937795096, 4899431000000, 
-0.0628768438247361, 0.171824375102725, 0.6366450163216919, 4899436000000, 
-0.10167406257763542, 0.18381221579445525, 0.6342659212546045, 4899441000000, 
-0.07325941924016098, 0.177660449940294, 0.6319187786677418, 4899446000000, 
0.05195072467237098, 0.21542321776588758, 0.6302930492470972, 4899451000000, 
-0.2049183352283825, 0.13798301163750915, 0.6289922734720533, 4899456000000, 
-0.027424023185558557, 0.18105873440852052, 0.6279371841917382, 4899461000000, 
-0.04061873278607495, 0.1694772468749719, 0.6272411008490819, 4899466000000, 
-0.06052832416278215, 0.19274876947958713, 0.6277623793900214, 4899471000000, 
-0.050296948647037834, 0.15113613904276668, 0.6282721819249718, 4899476000000, 
0.05878446309141255, 0.17519283565556165, 0.628851434900513, 4899481000000, 
-0.16937243748473907, 0.14902819563611797, 0.6305611752894756, 4899486000000, 
-0.049356954968347674, 0.1800240587139785, 0.6316472496405953, 4899491000000, 
0.06321316772781495, 0.189668973499556, 0.6331104583995844, 4899496000000, 
-0.2086305530577771, 0.15148743766523534, 0.6343497108265737, 4899501000000, 
-0.04699886587832448, 0.17644964013090203, 0.6350728072514967, 4899506000000, 
0.05989959647595848, 0.19801325868938863, 0.6353017004520395, 4899511000000, 
-0.17787336344666313, 0.16300323247129442, 0.6353642323461309, 4899516000000, 
-0.0580779368579798, 0.16363827243003093, 0.633554718217193, 4899521000000, 
-0.0663791909635848, 0.17344789574672526, 0.6315981516173931, 4899526000000, 
-0.056741500672547025, 0.175043657679898, 0.6294228210172396, 4899531000000, 
0.04428058522606711, 0.17130063238588095, 0.6274744818533801, 4899536000000, 
-0.17098722069563213, 0.17270905566059674, 0.6252216982674926, 4899541000000, 
-0.057968023134893534, 0.17862824946557412, 0.6232396299761989, 4899546000000, 
0.11110089891265346, 0.20673742372245216, 0.622039391809114, 4899551000000, 
-0.1669675705907583, 0.16766554705634218, 0.6199877621639045, 4899556000000, 
0.0765632628622531, 0.1816936863218167, 0.6190430121330567, 4899561000000, 
-0.19115791722263342, 0.179063956380696, 0.618430840267482, 4899566000000, 
0.019723136722459907, 0.2160174098234562, 0.6187381935550186, 4899571000000, 
-0.17416150986171697, 0.16062941835172784, 0.6181856402748905, 4899576000000, 
-0.061259236638047214, 0.17667557705421486, 0.6174065395731774, 4899581000000, 
0.08432899535459269, 0.16412057056045293, 0.616495181400407, 4899586000000, 
-0.2044272400284468, 0.1463186809502514, 0.6157947142823507, 4899591000000, 
-0.06267811042700322, 0.18855615577707582, 0.6147913310584973, 4899596000000, 
0.13515708399810025, 0.20241277092732776, 0.614679557372814, 4899601000000, 
-0.15345005735139378, 0.160867804523557, 0.6138265949287892, 4899606000000, 
-0.060441982456011366, 0.15900470038258308, 0.613527735585213, 4899611000000, 
0.04151030628021296, 0.17731956319712278, 0.6129109951812755, 4899616000000, 
-0.21064495977581393, 0.14628874698699865, 0.6134395735484158, 4899621000000, 
-0.031225608340087092, 0.16404272673753686, 0.6133724962982587, 4899626000000, 
0.0796987869600446, 0.16034655103282447, 0.6129976617895966, 4899631000000, 
-0.15646862934892747, 0.19375999870857466, 0.6135258857803322, 4899636000000, 
0.030992331042839178, 0.1900989298439324, 0.6139403749678564, 4899641000000, 
-0.1434628613408845, 0.16592707488000236, 0.6144945542888555, 4899646000000, 
-0.02585030337688244, 0.1648043929037126, 0.6149201470649439, 4899651000000, 
0.07207812360309665, 0.17447148916389305, 0.615235889661621, 4899656000000, 
-0.19039646105296498, 0.16477078624913952, 0.6153542701355053, 4899661000000, 
-0.06548028694273306, 0.17158574215430267, 0.6159394408271236, 4899666000000, 
0.046744952310594466, 0.15624225593385144, 0.616313372411785, 4899671000000, 
-0.18963519828841713, 0.15474102987137275, 0.6160576348855411, 4899676000000, 
-0.053227921085789776, 0.16499959828549424, 0.6148358676628723, 4899681000000, 
0.06642674766234025, 0.20686355036884208, 0.6131731881567096, 4899686000000, 
-0.2182415829806323, 0.19148077821999418, 0.6110537392476362, 4899691000000, 
-0.020891993227580254, 0.1719126454835292, 0.6095045637242191, 4899696000000, 
0.021100965982472908, 0.15853010847645504, 0.6073134595474408, 4899701000000, 
-0.16557152718565366, 0.16365207442638122, 0.6050556642500426, 4899706000000, 
-0.0705139942968548, 0.15386447102624462, 0.6033809429213187, 4899711000000, 
-0.07425738124933515, 0.1483649246532644, 0.6019883868987707, 4899716000000, 
-0.027131493023451476, 0.1709207859112042, 0.6007282418814972, 4899721000000, 
-0.08227618197790748, 0.19510546977975518, 0.5999964748047677, 4899726000000, 
-0.03505657968170203, 0.16530801303246315, 0.5997123335377272, 4899731000000, 
-0.05881658399375551, 0.15909668948606423, 0.6000868283519364, 4899736000000, 
-0.08617033960073639, 0.14451688572994353, 0.6004443471856221, 4899741000000, 
-0.03279906890381894, 0.15551600519318623, 0.601418407476527, 4899746000000, 
0.07735242146790584, 0.15425103066880314, 0.6022003503450497, 4899751000000, 
-0.19644201590967308, 0.19029574430064433, 0.6040177955339664, 4899756000000, 
-0.04936656322433858, 0.17570340225134004, 0.6044063556979967, 4899761000000, 
0.09118066016918812, 0.1527519438315597, 0.6057465979131683, 4899766000000, 
-0.20391197892636373, 0.22300056266413026, 0.6075377190087218, 4899771000000, 
-0.05684701715009807, 0.1911573096831207, 0.6080265253525372, 4899776000000, 
0.05659507697428747, 0.16336505502784687, 0.6082210724562697, 4899781000000, 
-0.19238855386126377, 0.19165755732862186, 0.606706920441362, 4899786000000, 
-0.05528210325812165, 0.1806717076235421, 0.6052733395207003, 4899791000000, 
-0.07580814948036656, 0.15079201949421425, 0.6040141432911288, 4899796000000, 
0.054877230515801054, 0.11177780275411, 0.6012793512151539, 4899801000000, 
-0.19281967279511886, 0.20928112452928618, 0.5993446512617147, 4899806000000, 
-0.07224842119913495, 0.18203713981673467, 0.5969203910773981, 4899811000000, 
-0.033411827999004315, 0.1775522355772993, 0.5944788203861799, 4899816000000, 
-0.06882964177923122, 0.2064387353775177, 0.5932531594313261, 4899821000000, 
-0.06803749662871499, 0.163706212984688, 0.5914191781225483, 4899826000000, 
-0.04357756873960725, 0.15337991076036786, 0.5908543392324633, 4899831000000, 
-0.0703282893139021, 0.13970408978485063, 0.5903075742303568, 4899836000000, 
-0.04056750667779928, 0.15753768294340523, 0.5900954175474401, 4899841000000, 
-0.10364609067292246, 0.1460173815328855, 0.5909776292100737, 4899846000000, 
-0.05245061227919568, 0.14913469521447922, 0.5917188322726188, 4899851000000, 
-0.060309470469415705, 0.1666852397287895, 0.5921605814091642, 4899856000000, 
-0.06000163720908419, 0.1543407661860924, 0.5936283029457604, 4899861000000, 
-0.09057132909477766, 0.1877822258420603, 0.595048075642942, 4899866000000, 
0.12465707330503734, 0.09026744662956128, 0.5963667362708562, 4899871000000, 
-0.1794351042492164, 0.21790278526092172, 0.5975562841977646, 4899876000000, 
-0.059280049288661964, 0.15113305916050085, 0.5988024742271368, 4899881000000, 
-0.028038090371618675, 0.17051635631877243, 0.5983202327327786, 4899886000000, 
-0.06896062404195169, 0.14877803520687866, 0.5975247033494151, 4899891000000, 
-0.02823582934765396, 0.15620395368953857, 0.595946320633239, 4899896000000, 
-0.08311289455518198, 0.1717719477333301, 0.5940036045815817, 4899901000000, 
0.05531225439608985, 0.17179938912101805, 0.5922754991175171, 4899906000000, 
-0.17509655145867425, 0.165307248521331, 0.5902530971768549, 4899911000000, 
-0.06986334474768796, 0.1595003573075748, 0.5888983619875576, 4899916000000, 
0.01963255512593766, 0.1710641005168838, 0.5861417046393994, 4899921000000, 
-0.14973492638137348, 0.1564072634777738, 0.5844917981404588, 4899926000000, 
-0.058030484123312506, 0.1663861478297054, 0.5837186470745955, 4899931000000, 
0.04680777108071751, 0.1761593104719974, 0.5827880536308252, 4899936000000, 
-0.13231753780606026, 0.16951322196363214, 0.5823165504223048, 4899941000000, 
-0.0825664579783041, 0.15089572576636304, 0.5824028689263252, 4899946000000, 
-0.07038599779944138, 0.12757968018217303, 0.5828049228903535, 4899951000000, 
-0.06297811795368505, 0.16351871127497442, 0.5835733676371648, 4899956000000, 
-0.07486717955320055, 0.1740494902114085, 0.5841530439547079, 4899961000000, 
-0.07835444775878675, 0.16278953764832058, 0.5859275606930492, 4899966000000, 
0.018163712612502346, 0.17523790982675494, 0.5864275719503071, 4899971000000, 
-0.16789202284107405, 0.08981685696566533, 0.5879349767860572, 4899976000000, 
-0.030949489365878043, 0.15908835732299217, 0.5888356070140544, 4899981000000, 
0.04502130050644808, 0.20781450828492531, 0.5889544805978109, 4899986000000, 
-0.11343973942600048, 0.09726742714168868, 0.5883853809598292, 4899991000000, 
-0.033038410370768295, 0.1450824973358493, 0.5876539251198654, 4899996000000, 
-0.05999921991772384, 0.12874651567372092, 0.5855162122890311, 4900001000000, 
-0.07446067697356597, 0.15634175026043506, 0.5840545098134958, 4900006000000, 
0.015185233751544808, 0.21205889219227098, 0.582152972063583, 4900011000000, 
-0.13503335480316334, 0.07761459319459121, 0.5804243595286664, 4900016000000, 
-0.05386740300128263, 0.16001748078400105, 0.5784102481284213, 4900021000000, 
-0.014212685839748664, 0.22331650211256315, 0.5771741293500269, 4900026000000, 
-0.08940637211988035, 0.12018636056370323, 0.5757536965646998, 4900031000000, 
-0.056565277924245816, 0.15299195694241435, 0.5751518136947271, 4900036000000, 
-0.0653834481023431, 0.14355502006699283, 0.5743841467324462, 4900041000000, 
-0.06685700530419107, 0.16526923201863938, 0.5743051519572455, 4900046000000, 
-0.02890072062188562, 0.2503721860321907, 0.573874074200429, 4900051000000, 
-0.09968065683984129, 0.0624179796818214, 0.5737050186234025, 4900056000000, 
-0.01995117309159482, 0.22780559668213857, 0.5730364322317125, 4900061000000, 
-0.10101661885891576, 0.06865451884697239, 0.5717516613873972, 4900066000000, 
-0.06494001781925207, 0.1829708114707946, 0.5716917948197603, 4900071000000, 
-0.020701509047847913, 0.24383214054577618, 0.5706137797654719, 4900076000000, 
-0.07527788373119142, 0.06294238926642491, 0.5704365498560139, 4900081000000, 
-0.09607205672554445, 0.16788903571932978, 0.5703266679583185, 4900086000000, 
-0.03800286345831008, 0.23904552739701976, 0.56961753142176, 4900091000000, 
-0.07945214964581189, 0.07972738330864473, 0.5695654441555934, 4900096000000, 
-0.03225366173714181, 0.2471538096505397, 0.5695314613072662, 4900101000000, 
-0.05278448843993795, 0.08804827466380151, 0.5696664239508995, 4900106000000, 
-0.03455312884240058, 0.1430736549387866, 0.5697640020128776, 4900111000000, 
-0.043836358441366796, 0.2629724672106555, 0.5701783136970371, 4900116000000, 
-0.06092252081172706, 0.028971394696051044, 0.5704575200979024, 4900121000000, 
-0.08402544452116373, 0.1441613673758064, 0.5712392051333861, 4900126000000, 
-0.03371154896355888, 0.2517692904964436, 0.5710559220267719, 4900131000000, 
-0.08099685287607658, 0.070859075976036, 0.5715658795260683, 4900136000000, 
-0.061436879537377705, 0.2027617743711434, 0.5724108279544275, 4900141000000, 
-0.03943359200281862, 0.16563480052401208, 0.5722030972881204, 4900146000000, 
-0.05636566971491549, 0.1479700424074256, 0.5727344402881619, 4900151000000, 
-0.02776262871220158, 0.26740534040304403, 0.5710160330519769, 4900156000000, 
-0.09975404834259674, 0.04230147271086238, 0.5705643030174746, 4900161000000, 
-0.03224722138759552, 0.27460183914797676, 0.5687459011762378, 4900166000000, 
-0.07119882079903633, 0.010710967777776425, 0.5668762016215769, 4900171000000, 
-0.031214452149418353, 0.29199569458850494, 0.5649396114468997, 4900176000000, 
-0.039542804288237504, 0.06149369087991016, 0.562834736811648, 4900181000000, 
-0.0376650969587529, 0.1589258565818194, 0.561370459229842, 4900186000000, 
-0.0707495483558647, 0.26172748276273305, 0.5602032601686869, 4900191000000, 
-0.08054902391689764, -0.008644690300984456, 0.5588484566191491, 4900196000000, 
-0.06209395309240667, 0.17334327563206198, 0.5587834993778631, 4900201000000, 
-0.06371884331115599, 0.3136576570401078, 0.5586475862209419, 4900206000000, 
-0.051562031196442995, 0.07360141324970038, 0.557998285221891, 4900211000000, 
-0.07825553230592378, 0.15107909536602784, 0.5584587447629429, 4900216000000, 
-0.02762011698177333, 0.280660103504126, 0.5593694657251981, 4900221000000, 
-0.07143564258512439, 0.017531893880424837, 0.5600270710358484, 4900226000000, 
-0.06535140028397696, 0.18898672896726199, 0.5615983502677873, 4900231000000, 
-0.06953041072316529, 0.3119305757701203, 0.5626843909211593, 4900236000000, 
-0.04917288919323094, -0.003106278679750985, 0.5634887720917733, 4900241000000, 
-0.06529795022847965, 0.208842644891933, 0.564760161342904, 4900246000000, 
-0.06669102012445913, 0.30762379114329325, 0.5649605678971434, 4900251000000, 
-0.07606685605009503, -0.0018815725984286796, 0.5652586614795572, 4900256000000, 
-0.051061591327815375, 0.17927304866737076, 0.5653894914032205, 4900261000000, 
-0.05165933389925728, 0.305690860129673, 0.5635852432580246, 4900266000000, 
-0.05335283272176285, 0.034262397623767815, 0.561877531411287, 4900271000000, 
-0.05012306132690475, 0.2959515003006868, 0.5603883782436134, 4900276000000, 
-0.07343112841310681, -0.05771955296401606, 0.5579489858388099, 4900281000000, 
-0.05209087864517221, 0.16962874932294478, 0.5564613681550866, 4900286000000, 
-0.05596933313270031, 0.3788501664107197, 0.5548749400273575, 4900291000000, 
-0.07566911024155429, 0.035922273852866206, 0.552950540450721, 4900296000000, 
-0.0542197008768275, 0.20168587278489558, 0.5516112538633801, 4900301000000, 
-0.0578912483664032, 0.3239087948988176, 0.5503273349630147, 4900306000000, 
-0.09210170038462562, -0.010196630337019496, 0.5500069374869301, 4900311000000, 
-0.04587870327224691, 0.16162142713386266, 0.5503848476773755, 4900316000000, 
-0.04729323776427703, 0.17075216275299554, 0.5504237180044634, 4900321000000, 
-0.05122943478466507, 0.15640316643953472, 0.5509295250815022, 4900326000000, 
-0.03710848699813851, 0.1758060232040814, 0.5525564040490746, 4900331000000, 
-0.03383336349689005, 0.1450361716385679, 0.5531383497478308, 4900336000000, 
-0.054527660505806756, 0.18494419277931612, 0.553797164929314, 4900341000000, 
-0.032250099973092236, 0.17102719835540722, 0.555554129778044, 4900346000000, 
-0.07561756590012414, 0.18285619566651615, 0.5566119802173852, 4900351000000, 
-0.0642515621916691, 0.17614335073862183, 0.5576476582112799, 4900356000000, 
-0.09304867192378219, 0.16816472191801446, 0.5581635721937328, 4900361000000, 
-0.14458761797041103, 0.37173649535971587, 0.5583025681396491, 4900366000000, 
0.046308752038595295, 0.010607022450609765, 0.5588104857979453, 4900371000000, 
-0.03447747441066801, 0.1562324289160918, 0.5588870422932612, 4900376000000, 
-0.1360662783841524, 0.1835994507331068, 0.5586327954231373, 4900381000000, 
-0.07228545642464175, 0.1826960270774354, 0.5591534975876754, 4900386000000, 
0.029843730911336283, 0.11099118615802049, 0.5592219026298733, 4900391000000, 
-0.055419147276240734, 0.17434674962710936, 0.5588049580129294, 4900396000000, 
-0.1387518192469784, 0.19313442629857347, 0.5590197089626452, 4900401000000, 
-0.026316404599773253, 0.1656280735607248, 0.5593347096709251, 4900406000000, 
0.02259384284054796, 0.15255656328849995, 0.559504266297248, 4900411000000, 
0.013782383251814103, 0.1600865859348831, 0.5593408462948171, 4900416000000, 
-0.1469723277681448, 0.31452785410639095, 0.5586862845892021, 4900421000000, 
-0.013366353638215884, -0.017037560934825263, 0.5578623083818812, 4900426000000, 
-0.013269485635712067, 0.1664258188941427, 0.5557482139896981, 4900431000000, 
-0.04707989051515865, 0.1668962264083469, 0.5537930994595613, 4900436000000, 
-0.06727684885209327, 0.17723883444680932, 0.5511705257701907, 4900441000000, 
-0.02015087968282945, 0.14550156163023872, 0.5494614283221524, 4900446000000, 
-0.05872444593921387, 0.27144167396979846, 0.5468912278223138, 4900451000000, 
-0.036765862990391036, 0.0035921324292371316, 0.5442635675110935, 4900456000000, 
-0.049285959263222, 0.1956485274763001, 0.5426094820546767, 4900461000000, 
-0.04770534254729726, 0.3304047295563445, 0.5407383552991976, 4900466000000, 
-0.06733672285345607, -0.022516413535281474, 0.5385508598315512, 4900471000000, 
-0.040433566460660646, 0.19830578183353584, 0.5372628099676787, 4900476000000, 
-0.039300414899009525, 0.1441080287582455, 0.5357383751399409, 4900481000000, 
-0.061963882046165604, 0.16082725413648258, 0.5349739501645552, 4900486000000, 
-0.029783654659391208, 0.3812769738046873, 0.5344544388798402, 4900491000000, 
-0.07697204906551317, -0.0104370806342061, 0.5349743675328303, 4900496000000, 
-0.025075485781214442, 0.29764628717096925, 0.5354327202775283, 4900501000000, 
-0.024645127298998842, 0.17689478604374942, 0.5354257667111681, 4900506000000, 
-0.08811540195160464, -0.05391830564928833, 0.5369514626316132, 4900511000000, 
-0.014265837167448385, 0.3291377479157787, 0.5381069513314092, 4900516000000, 
-0.06381914341131165, -0.009156203930304755, 0.5387167664458404, 4900521000000, 
-0.06824918137987374, 0.15414462578611599, 0.5399298199985995, 4900526000000, 
-0.05002389538087387, 0.356309970404562, 0.539789587646311, 4900531000000, 
-0.06724111267335707, -0.027627786510973668, 0.5400173658566797, 4900536000000, 
-0.04020079205636759, 0.31460457370137784, 0.5394056524103794, 4900541000000, 
-0.02975089884920638, 0.16902215050748787, 0.5382046651182898, 4900546000000, 
-0.07154346948118255, -0.020247019627095214, 0.5370800560095486, 4900551000000, 
-0.0691217956007134, 0.3381390008856225, 0.5358688665052986, 4900556000000, 
-0.07926434101858909, -0.07938546112370191, 0.5348921141971923, 4900561000000, 
-0.0379205769028904, 0.12612761096565897, 0.5337136750444903, 4900566000000, 
-0.03725015628294268, 0.34767544079970963, 0.5316466751772563, 4900571000000, 
-0.08380088509589405, -0.04798592637809575, 0.5310721494963856, 4900576000000, 
-0.034282788632314196, 0.3934294698748081, 0.5309617665830368, 4900581000000, 
-0.07869651870105968, 0.023543316286039628, 0.5294459967298516, 4900586000000, 
-0.06764624854680096, 0.15727523256942974, 0.5297112882350513, 4900591000000, 
-0.017748599388568004, 0.36454790981237056, 0.5293219747306603, 4900596000000, 
-0.04021615062866356, -0.06058283842727083, 0.5302656224585444, 4900601000000, 
-0.04120173644849756, 0.3566953528496644, 0.5304756712497202, 4900606000000, 
-0.0714631559525716, -0.05906339217959667, 0.5311006406035984, 4900611000000, 
-0.046111058842578094, 0.3785025782527939, 0.5318532996111582, 4900616000000, 
-0.06616307747005379, 0.005110245876230728, 0.5325792501617999, 4900621000000, 
-0.0576519446399804, 0.13194604865798837, 0.5333727170373963, 4900626000000, 
-0.05068425426162522, 0.3875124842272164, 0.5328957695444256, 4900631000000, 
-0.0709359516197037, -0.04123668424815853, 0.532754798905826, 4900636000000, 
-0.04335503552127871, 0.33545599776855745, 0.5321687741924923, 4900641000000, 
-0.0980169603980412, -0.004303852945799076, 0.5308520152029501, 4900646000000, 
-0.052890974913874275, 0.11794991691316002, 0.5298678945087187, 4900651000000, 
-0.011609823669095212, 0.36594178079396267, 0.5288698724319505, 4900656000000, 
-0.07519071005043108, 0.014595759225548293, 0.5270258284198333, 4900661000000, 
-0.019150240421274535, 0.1646314236851226, 0.5261269177133018, 4900666000000, 
-0.09094653999294111, 0.30000938634594587, 0.5248943626419137, 4900671000000, 
-0.023694345655950112, -0.007114194333208798, 0.5246307235210496, 4900676000000, 
-0.017652381849418936, 0.19562518153362668, 0.5238233148357424, 4900681000000, 
-0.09070055675566059, 0.3376088709399115, 0.5240548410855007, 4900686000000, 
-0.05879336300402817, -0.05716769257073284, 0.5251886517193811, 4900691000000, 
-0.014484907347370679, 0.19385741035304302, 0.5261618664010588, 4900696000000, 
-0.14813328503880854, 0.37024710685730033, 0.5271453124749212, 4900701000000, 
-0.027536100250620033, -0.008549923984205534, 0.5292653093047105, 4900706000000, 
-0.006072892241809224, 0.20702839481496083, 0.5312463763165255, 4900711000000, 
-0.13738472687034312, 0.15016810034595324, 0.5329441923432555, 4900716000000, 
-0.07304039585986215, 0.20588414177635847, 0.5345411015787117, 4900721000000, 
0.023350353208793372, 0.10160474446106198, 0.5363723128349362, 4900726000000, 
-0.11033231758053924, 0.14352920534221575, 0.5370622473737362, 4900731000000, 
-0.10409656193768449, 0.16913227043353796, 0.5377031251118842, 4900736000000, 
0.010624245860663042, 0.17399485546163382, 0.538132980992172, 4900741000000, 
0.0009771193243157863, 0.17327448413985314, 0.537198288954108, 4900746000000, 
-0.08838897053201147, 0.18001424733657728, 0.5359230186267967, 4900751000000, 
-0.08484509120320952, 0.14076335146761754, 0.5350561816535574, 4900756000000, 
-0.08426646721316897, 0.15315563182812744, 0.5340279427903429, 4900761000000, 
0.04322951147228103, 0.14159732521697577, 0.5322265108649562, 4900766000000, 
-0.09295100407733649, 0.15400739706251326, 0.5305777533075217, 4900771000000, 
-0.030913873415122823, 0.32156720646326936, 0.5293550789110877, 4900776000000, 
-0.08302403524072015, -0.04649893784432095, 0.5284227558935087, 4900781000000, 
-0.026589337550120554, 0.19268831565480019, 0.5271702429316333, 4900786000000, 
-0.06490447751532566, 0.1356601121912366, 0.5260526379660656, 4900791000000, 
-0.12468928713605627, 0.32426547238731696, 0.5249494608265769, 4900796000000, 
-0.03708691211460173, -0.025955138909995172, 0.5244768697932798, 4900801000000, 
0.008411489938389735, 0.1784015789747159, 0.5242790088168662, 4900806000000, 
-0.06738581832066606, 0.3498313377267486, 0.5227116338006609, 4900811000000, 
-0.09150252520691711, -0.07259390987647166, 0.5233827526358119, 4900816000000, 
-0.01862657600557597, 0.1727117663907238, 0.5226801125630159, 4900821000000, 
0.0042391000402336836, 0.3561417173632816, 0.5216938602906849, 4900826000000, 
-0.11948043684890546, -0.03378871849883625, 0.520726240079914, 4900831000000, 
-0.040101465617197525, 0.1662486793996168, 0.5194691238508491, 4900836000000, 
-0.0033930337635598735, 0.3363199527415946, 0.5172333007417733, 4900841000000, 
-0.08541499623119275, -0.03906275463677491, 0.5151565478532087, 4900846000000, 
-0.04010307652246516, 0.2788349593343906, 0.5136791010219542, 4900851000000, 
-0.09116578625402882, -0.04484184718717418, 0.5116207432506993, 4900856000000, 
-0.07200264458766695, 0.16857162855238947, 0.5103505462603889, 4900861000000, 
0.00033648780951058346, 0.3347058958092703, 0.5086154593157788, 4900866000000, 
-0.055511727958538815, -0.028343029077043995, 0.5078487789811486, 4900871000000, 
-0.015060722365892783, 0.3246129089645925, 0.5071477502715197, 4900876000000, 
-0.10206455288371855, -0.10449618946383392, 0.5071717630101652, 4900881000000, 
-0.060551005794644376, 0.1413977361827469, 0.5076047786798802, 4900886000000, 
-0.01111397209450975, 0.2960722738869534, 0.5075914100130658, 4900891000000, 
-0.09518228227458454, -0.05776608731622385, 0.5085721667803104, 4900896000000, 
-0.0528448042317041, 0.17335019605031474, 0.509636706711997, 4900901000000, 
-0.018672164767926512, 0.2766327066310537, 0.5091384672699083, 4900906000000, 
-0.09610429391577462, -0.030329057666981515, 0.5096579588529171, 4900911000000, 
-0.012872132550511811, 0.31857436287849095, 0.5097772335859311, 4900916000000, 
-0.07507435871299932, -0.0037120724968063836, 0.5089103350768921, 4900921000000, 
-0.07360341649396526, 0.16742008659673369, 0.5089437850096784, 4900926000000, 
-0.01626103939985133, 0.3239038200935019, 0.5081860231300644, 4900931000000, 
-0.10223413090096196, -0.04299333165770372, 0.5076303845768991, 4900936000000, 
-0.04894787362363458, 0.13930566470868344, 0.5070794601054895, 4900941000000, 
-0.006978990862535768, 0.3376008712983048, 0.5058265469636426, 4900946000000, 
-0.10415666021002883, -0.04280860106469442, 0.5056075743535763, 4900951000000, 
-0.05859618673502451, 0.17499182559994064, 0.5053316641489269, 4900956000000, 
0.027936984749841826, 0.2670714593542757, 0.5045186728425753, 4900961000000, 
-0.11408364438081753, -0.03164982917514071, 0.5045976691824847, 4900966000000, 
0.009296275750831086, 0.2938575273279127, 0.5048864187588663, 4900971000000, 
-0.11455419746050885, 0.004067781088120338, 0.5043329281057671, 4900976000000, 
-0.09314581238515057, 0.14825129210409477, 0.504747283729971, 4900981000000, 
0.0017189873938648396, 0.3333994577104264, 0.5048624565105363, 4900986000000, 
-0.11819407315989, -0.03637230172406987, 0.5054201838184659, 4900991000000, 
-0.0642949628914253, 0.1646464408519544, 0.5060156636160189, 4900996000000, 
-0.0009555364247118723, 0.3305168433167313, 0.5062888475913294, 4901001000000, 
-0.14492311978185773, -0.06435373426496487, 0.5054687654909481, 4901006000000, 
-0.0525443952469264, 0.19046510879737258, 0.5049726948506598, 4901011000000, 
1.4103447550825945e-05, 0.27625956754348735, 0.5040240300731559, 4901016000000, 
-0.12727500739420458, -0.03670125211522216, 0.5029100826830359, 4901021000000, 
-0.04131221408756622, 0.16753089859483128, 0.502035276757956, 4901026000000, 
0.0006956198495544387, 0.2974574171102449, 0.5005584127711, 4901031000000, 
-0.1306631609872451, -0.02362556245277712, 0.49963622142920366, 4901036000000, 
-0.06342925249944172, 0.19531024065179553, 0.49893380849422747, 4901041000000, 
-0.004375876662084048, 0.32306552926842597, 0.4978700292584018, 4901046000000, 
-0.12128718071708694, -0.005591694735907915, 0.49678595491762395, 4901051000000, 
-0.08108681119557264, 0.1643696955754377, 0.49711623900728313, 4901056000000, 
-0.04266572710915468, 0.11990881093737765, 0.4966102136287177, 4901061000000, 
-0.07499392801108436, 0.161503957538473, 0.4969778581439463, 4901066000000, 
-0.06444681255720024, 0.16851130668610537, 0.4975499584559464, 4901071000000, 
-0.04245100375871054, 0.13727070280873968, 0.49747914667737264, 4901076000000, 
-0.04426617392327195, 0.1450900804811838, 0.49836121039789677, 4901081000000, 
-0.05785459405302668, 0.16898154593103615, 0.4993654092855613, 4901086000000, 
0.037125038859881936, 0.3428410969645729, 0.4996814681584913, 4901091000000, 
-0.12788057230221106, -0.023918229150014715, 0.500264370399182, 4901096000000, 
-0.049591296091895075, 0.1567380959894969, 0.5012628065788173, 4901101000000, 
-0.0763076158309669, 0.13028276257940144, 0.5008094550988476, 4901106000000, 
-0.0883686844180056, 0.12595095062851988, 0.5005282510280541, 4901111000000, 
-0.0452735392092573, 0.1728491189565351, 0.5001840623067583, 4901116000000, 
-0.05194418790023264, 0.28452866758692474, 0.49842335131778354, 4901121000000, 
-0.10649235459868894, -0.030422731427867243, 0.4983680931940818, 4901126000000, 
-0.0067350871635527935, 0.15798723422435357, 0.4979124780452237, 4901131000000, 
-0.039566405545369415, 0.1440709005288788, 0.49705607139225866, 4901136000000, 
-0.15819841131352122, 0.13323839230801998, 0.4963365580435473, 4901141000000, 
-0.01916289807443374, 0.13467826752587025, 0.4967491803555461, 4901146000000, 
-0.015993602677793185, 0.1967088430037859, 0.497122328102055, 4901151000000, 
-0.0635568232877814, 0.15622418267742186, 0.4964605383074478, 4901156000000, 
-0.11543471126237353, 0.25918810668308734, 0.49716656307015183, 4901161000000, 
-0.07054592276167099, -0.001261211857574987, 0.4985940377276301, 4901166000000, 
-0.01755952136503836, 0.12710086614193727, 0.4993493630560772, 4901171000000, 
-0.02450170259692263, 0.20791278193769894, 0.499497838224894, 4901176000000, 
-0.13120917790371414, 0.16743910229434944, 0.4998993812528014, 4901181000000, 
0.02080998628684331, 0.15984799730812538, 0.5012456859754846, 4901186000000, 
-0.02962451199521811, 0.17557078837608847, 0.5010888483763538, 4901191000000, 
-0.07266412752869597, 0.2971708013766924, 0.5006892384714413, 4901196000000, 
-0.07253388564363408, -0.017871324239466614, 0.5005833601311372, 4901201000000, 
-0.03869725121038845, 0.14920042693045255, 0.499646611063783, 4901206000000, 
0.02666263421556423, 0.34148560525512095, 0.498209257668565, 4901211000000, 
-0.11051076403942241, 0.030974198100168746, 0.49567837541696463, 4901216000000, 
-0.060881838083971726, 0.14262394190587838, 0.49297242905814326, 4901221000000, 
0.030859518842508198, 0.3276716871817158, 0.49029812366221287, 4901226000000, 
-0.13683385318695732, -0.04410150820315174, 0.4875419638196686, 4901231000000, 
-0.02757768436956226, 0.1680318806415483, 0.4853227907307244, 4901236000000, 
0.025338896791522004, 0.3181911872846133, 0.48306407921363176, 4901241000000, 
-0.1597537390374014, -0.015697123369670482, 0.4816244367177749, 4901246000000, 
-0.056638386881261576, 0.16551651736520262, 0.48080768075533026, 4901251000000, 
-0.03602529187254473, 0.12548213473136605, 0.47972412384601143, 4901256000000, 
-0.07980183924424017, 0.1327570431273794, 0.48031911894286894, 4901261000000, 
0.000253520528269123, 0.2820126435126127, 0.48077906490103633, 4901266000000, 
-0.1551259897186168, -0.04572787265243495, 0.48129205908040795, 4901271000000, 
-0.03373700617185767, 0.1594679381288263, 0.48290101265607027, 4901276000000, 
0.03960359947355627, 0.28386417190119595, 0.4840485896043851, 4901281000000, 
-0.12474074644489891, -0.05813089381910334, 0.48572360583419705, 4901286000000, 
-0.04211877454805835, 0.15387599863374427, 0.4875294234175726, 4901291000000, 
0.02418931056295221, 0.31651052564685034, 0.48847995989184667, 4901296000000, 
-0.15494416860285165, -0.011370174044160752, 0.49061152382656725, 4901301000000, 
-0.041586945581087185, 0.15105033088756858, 0.49184091751359066, 4901306000000, 
0.03549919534961503, 0.3012645923230292, 0.4910924598147179, 4901311000000, 
-0.16359723620970476, -0.0006489140480356384, 0.4910539504012298, 4901316000000, 
0.031649948851993265, 0.31022658406498266, 0.4897720365928775, 4901321000000, 
-0.18519935687243966, -0.020858715578863513, 0.4881181185529895, 4901326000000, 
-0.03574575136608555, 0.17297484708203864, 0.4868079032812311, 4901331000000, 
0.0760830321906682, 0.2621045762223638, 0.4848719708258933, 4901336000000, 
-0.18916960201568617, -0.02062220556578102, 0.48338867801548946, 4901341000000, 
-0.04606840574967749, 0.18688434437676554, 0.48124611202424483, 4901346000000, 
0.028735993564811897, 0.28249148268770546, 0.47869022709979037, 4901351000000, 
-0.1594616366856337, 0.010033518190219207, 0.4782778275188153, 4901356000000, 
0.024652152502811654, 0.2670449372212587, 0.4771166568706103, 4901361000000, 
-0.18055284049502573, 0.03132983285853307, 0.4764372038507594, 4901366000000, 
-0.07825891348876592, 0.13223270722213046, 0.47657223246908514, 4901371000000, 
0.08929502780698068, 0.29113960148683493, 0.4764329710919754, 4901376000000, 
-0.14885075448123786, 0.009436135199974712, 0.4762847969666321, 4901381000000, 
-0.08021795280646819, 0.17150717677468977, 0.47626753390697035, 4901386000000, 
0.06109452044721742, 0.27045640922815084, 0.47587815281710366, 4901391000000, 
-0.18202571001342266, 0.013778240888073254, 0.4761014004571107, 4901396000000, 
-0.08095005399832642, 0.2008560153132395, 0.47603049252039703, 4901401000000, 
0.03989996303359461, 0.2853051415134346, 0.4755195887606187, 4901406000000, 
-0.16764631333756194, -0.01594970640767797, 0.47557454870071597, 4901411000000, 
0.052496945316905304, 0.2593500856961788, 0.4760138295239794, 4901416000000, 
-0.19476980840612979, -0.04225487168095773, 0.47586079548419674, 4901421000000, 
-0.03180858892510943, 0.16942931857121513, 0.476362055031148, 4901426000000, 
0.06139809306498714, 0.2575495770690622, 0.4762041223013451, 4901431000000, 
-0.20194209038129626, 0.021508910626793817, 0.47638845297277005, 4901436000000, 
-0.0343817513648826, 0.17295945090692746, 0.4763901401590972, 4901441000000, 
-0.03864911379863775, 0.13510837433348952, 0.4762084060624213, 4901446000000, 
-0.06478291569784103, 0.13493810497139697, 0.4774644882108378, 4901451000000, 
-0.06372100221973125, 0.15983847913190047, 0.4764932663360528, 4901456000000, 
-0.04977965700620629, 0.12582209777227568, 0.47621418021596396, 4901461000000, 
-0.07542133873424872, 0.15523475347587987, 0.47682066390241745, 4901466000000, 
-0.060534921254186885, 0.1404204685682146, 0.47681881103566504, 4901471000000, 
-0.03757696191630723, 0.15602140134932993, 0.47681511896552947, 4901476000000, 
-0.06630085100676561, 0.16456297560739402, 0.4760208306793799, 4901481000000, 
-0.04269026507648979, 0.153055359928215, 0.47561866499895983, 4901486000000, 
-0.019547501103432396, 0.2947515848192019, 0.474513554507459, 4901491000000, 
-0.138098477826663, 0.03185161486004859, 0.47408684297115516, 4901496000000, 
-0.022317899760851634, 0.14610523302246892, 0.47350706281302835, 4901501000000, 
0.03378201973288344, 0.264304560950305, 0.4727164501262981, 4901506000000, 
-0.17121679269331336, 0.011360065552895999, 0.4725948404854723, 4901511000000, 
-0.016584081705629125, 0.11782368255806862, 0.47287285984676014, 4901516000000, 
-0.07933669253462053, 0.10602031619116109, 0.4726860671395048, 4901521000000, 
-0.07201664543426842, 0.12151906459910622, 0.4733610198248784, 4901526000000, 
0.019002758530949553, 0.15674189900019203, 0.47476190754137954, 4901531000000, 
-0.03006888135296942, 0.15952138803479057, 0.4742213412093881, 4901536000000, 
-0.013940411652017575, 0.235801334772217, 0.47558525162515425, 4901541000000, 
-0.15652598715210053, 0.007299140424062273, 0.4762315747275694, 4901546000000, 
0.022947303610961277, 0.15436582945513702, 0.47654381137349483, 4901551000000, 
-0.05468799193848875, 0.13028404721033437, 0.47661247750581853, 4901556000000, 
-0.13012035796522678, 0.12590916051997894, 0.47641242731117966, 4901561000000, 
-0.014576931762234747, 0.1698818578181974, 0.47627639040457953, 4901566000000, 
-0.01766425968276966, 0.15813155329874912, 0.47587569186641004, 4901571000000, 
-0.030207945642749652, 0.1298922110770686, 0.4749629358261483, 4901576000000, 
-0.07122076909016746, 0.15333472949997912, 0.4732709814563119, 4901581000000, 
-0.04308286339677373, 0.17728256599840517, 0.471779000821458, 4901586000000, 
0.14940921003904384, 0.21400518976753197, 0.4690296226584, 4901591000000, 
-0.22722370420281782, 0.016927268817730743, 0.4667845740200947, 4901596000000, 
-0.05291091862808038, 0.18938793727519398, 0.4649864847717721, 4901601000000, 
0.11663308282206275, 0.26207443067348524, 0.4626835920652097, 4901606000000, 
-0.21728533366721178, 0.01773143392033383, 0.46119407238680044, 4901611000000, 
-0.0519464974903387, 0.1655152526357215, 0.4598220095149641, 4901616000000, 
0.1069722900434264, 0.27396399682258765, 0.4591572840066456, 4901621000000, 
-0.21650302854211897, -0.007592622900486956, 0.4583591100889031, 4901626000000, 
-0.05116230459230858, 0.15756751246455086, 0.4590364739728484, 4901631000000, 
0.11288314007401873, 0.28752754343506, 0.45895002809871344, 4901636000000, 
-0.2518407607520168, 0.004983592790843781, 0.459958827611353, 4901641000000, 
0.07309848783172453, 0.2455292828412584, 0.46113826755226317, 4901646000000, 
-0.18282732886707603, 0.003731790215182794, 0.46158079638626515, 4901651000000, 
-0.058233874936222674, 0.16594940417406837, 0.46272595645026615, 4901656000000, 
0.09695336871151097, 0.21532539369459217, 0.4622439135678789, 4901661000000, 
-0.20208756782483467, 0.01690115234080152, 0.462876165312825, 4901666000000, 
-0.06610224035600167, 0.1651906857716425, 0.46308052983311754, 4901671000000, 
0.07502593802938992, 0.25316538031472424, 0.4620050329666027, 4901676000000, 
-0.21741205507515837, 0.005538572208586577, 0.4622160188226664, 4901681000000, 
-0.06054874048660825, 0.14979755579102685, 0.461378706282216, 4901686000000, 
0.10297477458114344, 0.3000981604960049, 0.4605963448531208, 4901691000000, 
-0.16504677474107535, 0.05429518911242535, 0.4604597755164158, 4901696000000, 
-0.04839194701584685, 0.1486908305378596, 0.46024848675179725, 4901701000000, 
0.10411330750658351, 0.28024653070487154, 0.45895723935306393, 4901706000000, 
-0.18040317631759736, 0.0694311812392006, 0.4586973427087692, 4901711000000, 
-0.06231184082049743, 0.16584070125803504, 0.4583535162690428, 4901716000000, 
0.05318076721910469, 0.2441150171601924, 0.4579989858837275, 4901721000000, 
-0.16879504107324295, -0.0057801022829356945, 0.4583105547816403, 4901726000000, 
-0.07791846421016788, 0.1569187317903009, 0.4584693762974794, 4901731000000, 
0.053219504388564, 0.2448745310287383, 0.4580796676482154, 4901736000000, 
-0.20720038524383316, -0.012641561415238393, 0.4583329201424358, 4901741000000, 
-0.04006692918383234, 0.16436480103504247, 0.45901160160474525, 4901746000000, 
0.03944522990593968, 0.23683122508015841, 0.4587209932264684, 4901751000000, 
-0.1516672414420289, 0.05568261670363567, 0.4586188074091378, 4901756000000, 
-0.07868824781451318, 0.15429816072598568, 0.4579813674158119, 4901761000000, 
0.08551392476961672, 0.3040213185275312, 0.4571668767197328, 4901766000000, 
-0.14978793262213097, 0.039343938659299915, 0.4561614866405016, 4901771000000, 
-0.05457606913761123, 0.148694615717982, 0.455761949951592, 4901776000000, 
0.06989000449838756, 0.27619069224184195, 0.45480896571647716, 4901781000000, 
-0.12899759319664858, 0.04636463716424216, 0.45417239432909945, 4901786000000, 
0.05424769193323577, 0.2552920139359996, 0.453168056342425, 4901791000000, 
-0.16020950050748137, 0.0002642131497509123, 0.4529994156147766, 4901796000000, 
-0.04974914134231975, 0.17420112952651626, 0.4522585409258761, 4901801000000, 
-0.08359409296027297, 0.11168689161598994, 0.4522465128108736, 4901806000000, 
-0.0402796309109674, 0.12694180601916857, 0.45233621473534985, 4901811000000, 
0.0007150353533956905, 0.21230557748654555, 0.45238953777722263, 4901816000000, 
-0.15965028341795107, 0.05193172749362087, 0.45214518907150786, 4901821000000, 
-0.044178817897484596, 0.1272547187085004, 0.4533117337971828, 4901826000000, 
0.021509974484678722, 0.2376709164150191, 0.45321163202026343, 4901831000000, 
-0.10558928662762367, 0.01749382068356798, 0.4541814315551498, 4901836000000, 
-0.046390703565317035, 0.14018365123312923, 0.45447664708208735, 4901841000000, 
-0.06279397188678532, 0.1475261591509468, 0.45507085765280253, 4901846000000, 
-0.04540045421666447, 0.17142765350252198, 0.45518655334671354, 4901851000000, 
0.004763108112489785, 0.24770645430018204, 0.45530971729125513, 4901856000000, 
-0.10731065334593334, 0.0035130812631482926, 0.45419015330594725, 4901861000000, 
-0.05792917085561827, 0.16960478502330492, 0.45380095201381965, 4901866000000, 
0.013369031538256582, 0.28512458940981245, 0.45253936883718215, 4901871000000, 
-0.147049181634026, 0.02983830773517955, 0.45136536829511875, 4901876000000, 
-0.046358520986851275, 0.16166006070181843, 0.45050319474384687, 4901881000000, 
-0.010341529496956582, 0.2528295296276735, 0.44941054748561865, 4901886000000, 
-0.11630352692630272, 0.0227406590213205, 0.4482088038498859, 4901891000000, 
-0.04386755516555782, 0.19554949030615093, 0.4473916439157259, 4901896000000, 
0.03680122912993807, 0.269802429128268, 0.44661770196617556, 4901901000000, 
-0.1219861003955779, 0.01537115989710869, 0.4462091276902227, 4901906000000, 
-0.03913756685058817, 0.15197736592695685, 0.4463956848009143, 4901911000000, 
0.021301747913188812, 0.26764373258064394, 0.44642956814386386, 4901916000000, 
-0.13431711151242012, -0.01394794669418924, 0.44672026030408335, 4901921000000, 
-0.0604692402721385, 0.1637814918971364, 0.44723213005211265, 4901926000000, 
0.0002729782887068333, 0.21140479641906668, 0.447467877735013, 4901931000000, 
-0.11134336298330329, 0.026243844620880696, 0.44798349208511445, 4901936000000, 
-0.049365318292510486, 0.1338579830776505, 0.44880639139857964, 4901941000000, 
-0.03184421600983309, 0.12763325021836014, 0.44970581765331874, 4901946000000, 
-0.03717299059282244, 0.12520915564582485, 0.44969105958142896, 4901951000000, 
-0.07756271003957387, 0.12742804180183556, 0.4503258223055169, 4901956000000, 
-0.055725079182640684, 0.1387465450463289, 0.4506345263679283, 4901961000000, 
-0.00459018236473481, 0.2593279517000226, 0.4492776089483628, 4901966000000, 
-0.1092947908848693, -0.012153291253639027, 0.44839462919603307, 4901971000000, 
-0.053979729402515914, 0.14806583408471105, 0.4474408061101655, 4901976000000, 
0.02499512611399386, 0.22047032748864787, 0.4461661264972649, 4901981000000, 
-0.11822915292996068, 0.007919112488464275, 0.44522490879707666, 4901986000000, 
-0.05728839426430464, 0.13743685073295883, 0.4441188705861348, 4901991000000, 
-0.014341156797455222, 0.2667781393915344, 0.4429846884569401, 4901996000000, 
-0.12032795345819089, -0.022488431137978517, 0.4418710593784861, 4902001000000, 
-0.06383608546015979, 0.14636871624273692, 0.4415284986539337, 4902006000000, 
-0.006647671005919011, 0.25779558737890707, 0.44158172082500685, 4902011000000, 
-0.09246877729428525, -0.027850700413408796, 0.4409855985226541, 4902016000000, 
-0.06064418327549941, 0.1664865350537779, 0.4412062209353599, 4902021000000, 
-0.017945616880791937, 0.274168660773342, 0.44148637714759026, 4902026000000, 
-0.09005197036579482, -0.017378841893244845, 0.44174685210049214, 4902031000000, 
-0.02550929115517742, 0.15813471461342865, 0.44294352795152947, 4902036000000, 
-0.014342999527516265, 0.2683025889018511, 0.4433165158445091, 4902041000000, 
-0.08332905327376347, 0.003530082421973407, 0.44387287380879437, 4902046000000, 
-0.06163262460719483, 0.17195101119539363, 0.4452556853649378, 4902051000000, 
0.018074377879646625, 0.24481972827714404, 0.4449281776595814, 4902056000000, 
-0.1478824375079489, 0.0355947563013401, 0.44493407729645235, 4902061000000, 
0.0054805945155119405, 0.2883684928162406, 0.44463283918358937, 4902066000000, 
-0.09839399579931442, 0.002927311915786379, 0.44349899581500934, 4902071000000, 
-0.05028506929547971, 0.17100960082691335, 0.4429459542539285, 4902076000000, 
-0.020527211643421882, 0.2862019307080023, 0.4418317643450723, 4902081000000, 
-0.09126408081077765, -0.015056839636671045, 0.4407240433086005, 4902086000000, 
-0.048429385989739615, 0.18326745897581037, 0.44001604859842214, 4902091000000, 
-0.03340404004075993, 0.2727874068247189, 0.4384552507940326, 4902096000000, 
-0.09535360747130502, -0.004576165970736297, 0.4377339076292635, 4902101000000, 
-0.03374392913211271, 0.16142568498176146, 0.4373422058855356, 4902106000000, 
-0.02900748815067477, 0.3177488705953972, 0.43631711263542505, 4902111000000, 
-0.11505279908131771, 0.02742930809208008, 0.43627019144797274, 4902116000000, 
-0.023087589077686467, 0.17281180171622945, 0.4364668012110705, 4902121000000, 
-0.028492069274310104, 0.22060718351687772, 0.43652038983008173, 4902126000000, 
-0.1338899849462224, -0.007723626301534574, 0.4372277512054221, 4902131000000, 
-0.023572084626868342, 0.2684940245478257, 0.437380644727274, 4902136000000, 
-0.10201227722820196, 0.025187637164534853, 0.4378501456082962, 4902141000000, 
-0.08394915245284404, 0.1217135560642672, 0.43938771120043707, 4902146000000, 
-0.02444607589687676, 0.2630019947932455, 0.4401365781527958, 4902151000000, 
-0.09839264943545892, -0.009577561337994579, 0.4402407231469807, 4902156000000, 
-0.0577191756666965, 0.15918231254138432, 0.4406511258704551, 4902161000000, 
-0.016197033696780147, 0.2573816229488142, 0.4399409448239697, 4902166000000, 
-0.07914559047382833, -0.01752678625043355, 0.4391059394115309, 4902171000000, 
-0.049914006738132434, 0.1455422193808201, 0.4384977234360538, 4902176000000, 
-0.015366923378823396, 0.24979472343048106, 0.43758818967717894, 4902181000000, 
-0.09606415775973791, -0.018440527000702554, 0.4363351185912802, 4902186000000, 
-0.04929776920776486, 0.1698112130840592, 0.4358458137299428, 4902191000000, 
-0.005709920413502392, 0.2652535148477654, 0.4344959486464923, 4902196000000, 
-0.09564685519938756, -0.005071920718392122, 0.43360050196472555, 4902201000000, 
-0.020325557456612145, 0.22064770898504904, 0.43267570473348266, 4902206000000, 
-0.08757456349360067, 0.008524281192348996, 0.43184409209231683, 4902211000000, 
-0.06987090969822837, 0.1435297216126368, 0.4322966019702691, 4902216000000, 
-0.024327713184008046, 0.2927729355600219, 0.43175439684914985, 4902221000000, 
-0.10207037684414233, -0.021851646311511513, 0.4321138617647818, 4902226000000, 
-0.04433018989996826, 0.15612357711943972, 0.43157708116796745, 4902231000000, 
-0.03311224334010899, 0.26084861108276186, 0.43076282312139924, 4902236000000, 
-0.11743988634100756, -0.020621373807118232, 0.43033663072612494, 4902241000000, 
-0.03366273033949021, 0.1770006036405169, 0.43058375024869305, 4902246000000, 
-0.0010044043272811436, 0.2826791124545062, 0.4299030761476333, 4902251000000, 
-0.10462245745604135, -0.014352124594092672, 0.4296122823341597, 4902256000000, 
-0.048558308749582065, 0.15444407479213768, 0.42981891353716567, 4902261000000, 
-0.02279407199362656, 0.25155455607582544, 0.42900854025311586, 4902266000000, 
-0.07509833978645689, -0.02265374645773749, 0.4291245937908741, 4902271000000, 
-0.028993443905613883, 0.1455232669739342, 0.4295505749087194, 4902276000000, 
-0.013666073877358104, 0.26151359217532333, 0.4295290387986804, 4902281000000, 
-0.0678908266744413, -0.0019800462193045173, 0.42972722865358065, 4902286000000, 
-0.053453212591257473, 0.1886995401108169, 0.42946141531979853, 4902291000000, 
-0.008220760994241608, 0.2686246660817736, 0.42972863446944426, 4902296000000, 
-0.10579544122288392, 0.008931791686270268, 0.4296151268111258, 4902301000000, 
-0.04654953313699876, 0.1589461864134848, 0.430613353245268, 4902306000000, 
-0.03507620700894892, 0.09653617470999708, 0.4302240720947513, 4902311000000, 
-0.03165714385332623, 0.15047639555636322, 0.4309646533843059, 4902316000000, 
0.006609438474057667, 0.29485149344722367, 0.43064110475288325, 4902321000000, 
-0.09580538266573123, 0.0031190198998524987, 0.43103440381879715, 4902326000000, 
-0.03120233295188009, 0.1346678284292236, 0.43059273836547474, 4902331000000, 
-0.00359103855819032, 0.2764859431257426, 0.42939593474754695, 4902336000000, 
-0.08681714049656532, -0.008920207321225098, 0.4289958690211163, 4902341000000, 
-0.05251271863068731, 0.1400322988818371, 0.42829780092768877, 4902346000000, 
-0.05488660523059499, 0.11508702847345881, 0.4266040987220629, 4902351000000, 
-0.04720601876384501, 0.13666040566018034, 0.4260327452714367, 4902356000000, 
-0.02593076787265283, 0.25337884989866355, 0.42469323291370903, 4902361000000, 
-0.05403155157429786, 0.025232475771607796, 0.42408148664262935, 4902366000000, 
-0.04330916425344095, 0.1738907689603389, 0.423179382869964, 4902371000000, 
0.0026665194098962376, 0.26648586005486197, 0.42296023653048054, 4902376000000, 
-0.08363626723388008, -0.013584516105205722, 0.42285486571496333, 4902381000000, 
-0.03481737227118374, 0.15244993153195469, 0.4230990753173257, 4902386000000, 
-0.016985086006453938, 0.259696915595457, 0.42275011451190125, 4902391000000, 
-0.08902248614983774, -0.02745449451412153, 0.4231248801894342, 4902396000000, 
-0.02454039840710204, 0.22318581218424505, 0.4241965259337145, 4902401000000, 
-0.09948566461583058, -0.026601664027234725, 0.42373309023843836, 4902406000000, 
-0.05243503618520815, 0.12717250684454875, 0.42494376592635036, 4902411000000, 
-0.005763767124285203, 0.27476560738130085, 0.4256404397419379, 4902416000000, 
-0.1179110979473777, -0.004866958120453586, 0.42607829423513194, 4902421000000, 
-0.05182056145177226, 0.12920582551914178, 0.4263131418171198, 4902426000000, 
-0.018047253049205673, 0.28387036854991865, 0.4264314893487481, 4902431000000, 
-0.08418560875339726, -0.0025010624803489586, 0.4266936416270062, 4902436000000, 
-0.08250859004308912, 0.15742729207456094, 0.4259678088106169, 4902441000000, 
0.010064490172082035, 0.25769966247011294, 0.42425711911867675, 4902446000000, 
-0.10890026999500857, -0.03999273271907519, 0.42376294015104793, 4902451000000, 
-0.040090648293379036, 0.17195124689013452, 0.42285821833439763, 4902456000000, 
0.014175427736957555, 0.2545711514450274, 0.4216352378555887, 4902461000000, 
-0.10292586562191229, -0.02261362932947334, 0.42073595723480584, 4902466000000, 
-0.08621294605537438, 0.13660595560044742, 0.4199909777194114, 4902471000000, 
-0.019458911172903905, 0.28949122219743506, 0.41874298235672786, 4902476000000, 
-0.12247962862917594, -0.04054382523903333, 0.41826003554784075, 4902481000000, 
-0.015269759978711486, 0.24925480336145872, 0.4180869796401995, 4902486000000, 
-0.0769624098525893, 0.0006680393804898658, 0.4177202095844259, 4902491000000, 
-0.016454351968365644, 0.17967021526151114, 0.41802991469967427, 4902496000000, 
-0.027008943947793823, 0.29178272153076035, 0.41836269608792337, 4902501000000, 
-0.11432271666730028, 0.006985210442150804, 0.41860734031604047, 4902506000000, 
-0.06013408529818829, 0.1299698514138556, 0.41976178101061434, 4902511000000, 
-0.042105894650442344, 0.2606800924305248, 0.41986825344723444, 4902516000000, 
-0.10412634046313915, -0.04025203579053845, 0.4207158406560919, 4902521000000, 
-0.04697716651555473, 0.15651660181742394, 0.4217706533266246, 4902526000000, 
0.0019733342706005318, 0.27973727632389284, 0.4214601022687908, 4902531000000, 
-0.11733805269500137, -0.014931705133562094, 0.4218220788708367, 4902536000000, 
-0.05364242672223038, 0.16163095293548238, 0.42172984206419234, 4902541000000, 
-0.00014638417481780894, 0.2802771295914352, 0.42075218462553077, 4902546000000, 
-0.0999794201505934, -0.0345265838482274, 0.4201058356259206, 4902551000000, 
-0.045143711628987684, 0.13158944277214923, 0.41943533279633505, 4902556000000, 
-0.05638104179190899, 0.27346994317456585, 0.4176232121416477, 4902561000000, 
-0.0680723626883373, -0.03382509664829798, 0.4171895278950958, 4902566000000, 
-0.04050276000505203, 0.12147654451731608, 0.41591080010347947, 4902571000000, 
-0.029018481731561886, 0.27254594121955156, 0.4150459128588446, 4902576000000, 
-0.07663097554861137, -0.03417784865520827, 0.41502943811396353, 4902581000000, 
-0.02746267429725137, 0.2926810012361186, 0.41428995204921204, 4902586000000, 
-0.06938747681871588, -0.015914862279829495, 0.4136808323304, 4902591000000, 
-0.05812423422715527, 0.1478969363817473, 0.414135056042126, 4902596000000, 
-0.017496179933040763, 0.2751499787895707, 0.413465214446106, 4902601000000, 
-0.1256789290668328, -0.04686042128080958, 0.41356797781823224, 4902606000000, 
-0.08207067518560217, 0.1503333610155184, 0.4132799495055028, 4902611000000, 
-0.07866407286330228, 0.12672503736218613, 0.4126628694214731, 4902616000000, 
-0.058392926696168815, 0.10186203023545373, 0.4124039053870495, 4902621000000, 
-0.058072604744222545, 0.280022953963482, 0.4124292427914534, 4902626000000, 
-0.05937298584024766, -0.04617334958686984, 0.41184826015059, 4902631000000, 
-0.03458279441014551, 0.15239041074180054, 0.41180147567113384, 4902636000000, 
-0.023305903013976916, 0.2911287482767485, 0.41188022550477305, 4902641000000, 
-0.08263979987226489, -0.04876315499313961, 0.41139537291143563, 4902646000000, 
-0.0729755960216458, 0.1449682923928683, 0.41187348244983063, 4902651000000, 
-0.027560131230931463, 0.27789319387759126, 0.41122715089812956, 4902656000000, 
-0.09629901495759781, -0.05217128944372641, 0.41185469250402973, 4902661000000, 
-0.05533751735822584, 0.1273616192564864, 0.4122848539163103, 4902666000000, 
0.0017832668177193735, 0.2889119954403076, 0.41197196264153335, 4902671000000, 
-0.10185709597675893, 0.0003382036780145148, 0.4121706417736199, 4902676000000, 
-0.07395209988890235, 0.17780510104465008, 0.4122916231774911, 4902681000000, 
-0.020101195048982105, 0.1168644607892057, 0.41227875559290084, 4902686000000, 
-0.05685012898847844, 0.10683768407088777, 0.4127799066004228, 4902691000000, 
-0.00730750385386434, 0.2649017903327989, 0.41284629222356256, 4902696000000, 
-0.08736435811744363, -0.009763989140308071, 0.41264822578696503, 4902701000000, 
-0.03111642782964479, 0.16385849245154496, 0.41244763061923045, 4902706000000, 
-0.006524395647135649, 0.28184474583908226, 0.41196981542135075, 4902711000000, 
-0.08898839385339867, -0.08469201422645979, 0.4107640059849905, 4902716000000, 
-0.03697853702285931, 0.12699534052921577, 0.4098732583550668, 4902721000000, 
-0.02078151870615278, 0.34547015082186205, 0.40889251947020205, 4902726000000, 
-0.11987570417070191, -0.06286325459470306, 0.40774063429356, 4902731000000, 
-0.025668339161172542, 0.15323222856742863, 0.4073943531352267, 4902736000000, 
-0.05118755483587472, 0.27606558336153164, 0.40635647103152933, 4902741000000, 
-0.10129825507353644, -0.03750914000328918, 0.40608674348056006, 4902746000000, 
-0.07684880895023943, 0.1740100002045125, 0.40589754594779626, 4902751000000, 
-0.08567197278657343, 0.10679310164586789, 0.40557311807219126, 4902756000000, 
-0.06994372767007058, 0.13233021827162844, 0.4055852992035917, 4902761000000, 
0.01547353729113022, 0.305052636007494, 0.4060373577287906, 4902766000000, 
-0.09935741048451582, -0.023211485048330215, 0.40622528046768575, 4902771000000, 
