acc_x, acc_y, angular_z, stamp, 
-0.03428914714044625, 0.21041081330963857, 1.0160606023809506, 4437473000000, 
0.13771060834410329, 0.22086431133314058, 1.0188638229847375, 4437478000000, 
-0.22346874311761977, 0.27287313198336705, 1.0212421452762754, 4437483000000, 
-0.1650059686083058, 0.48385685527091393, 1.024336241778123, 4437488000000, 
0.014065484948429968, 0.012488645724099072, 1.0280473324037231, 4437493000000, 
-0.1323289714489142, 0.2525550970899047, 1.0302467444149952, 4437498000000, 
-0.13636225483018244, 0.33862216313349625, 1.0335334903841995, 4437503000000, 
-0.017359198405197045, 0.22570027966412606, 1.035991315026726, 4437508000000, 
-0.030467954431754804, 0.19301789325616892, 1.037828469684928, 4437513000000, 
-0.11786543567092707, 0.3404088396325759, 1.0404275985261053, 4437518000000, 
0.021265521919382906, 0.4321166503488051, 1.0424794124962065, 4437523000000, 
0.04371365719073165, 0.0012581665645522953, 1.0434196727152159, 4437528000000, 
-0.10973551477380805, 0.30719976857164366, 1.0441773191452624, 4437533000000, 
0.01417553056656589, 0.41239156146524564, 1.0442041224297756, 4437538000000, 
-0.1668748401234197, 0.053650834368417236, 1.0442228925655503, 4437543000000, 
0.006200959994780663, 0.3292970265796884, 1.043889314257945, 4437548000000, 
0.020797578332728578, 0.3941952625068354, 1.04341043856305, 4437553000000, 
0.0030034222573173354, 0.049086870409889516, 1.0426578848134234, 4437558000000, 
-0.11303353738700855, 0.24274499170916722, 1.0402794658142456, 4437563000000, 
0.02438075849779893, 0.4420688872943457, 1.0377383316476272, 4437568000000, 
-0.06457574136527204, 0.08315633467247695, 1.0354682674044615, 4437573000000, 
-0.10060169589788116, 0.24852675830532764, 1.032355598446336, 4437578000000, 
0.042356048150647294, 0.4080068988051705, 1.029735733010846, 4437583000000, 
-0.04618939439763553, 0.10849414665783504, 1.0273935588116487, 4437588000000, 
0.11173680175362598, 0.2540685351629147, 1.024345448046186, 4437593000000, 
-0.09895648332491647, 0.43073281612772096, 1.0212501083844416, 4437598000000, 
-0.10127678611600571, 0.13554917111821943, 1.018930452730772, 4437603000000, 
-0.10319083762354274, 0.25097650871501953, 1.016592291394108, 4437608000000, 
-0.13966114989547934, 0.3895447139771544, 1.0147073825139494, 4437613000000, 
0.052110522412940175, 0.1378092907798706, 1.014040013073463, 4437618000000, 
-0.015777688348507676, 0.34451604882425463, 1.0121865942393296, 4437623000000, 
-0.11873586405106332, 0.18423668279963523, 1.0113116755725398, 4437628000000, 
0.074771667058269, 0.25724650631886525, 1.0112286748745052, 4437633000000, 
-0.039252136022480164, 0.3533083851210264, 1.0102524454513364, 4437638000000, 
-0.13865833881031925, 0.12925137481825952, 1.010050726824526, 4437643000000, 
0.08762790141418134, 0.2612876066759517, 1.010148967402112, 4437648000000, 
-0.10944848427858984, 0.34137254827935254, 1.0093847501637723, 4437653000000, 
-0.017112811843930896, 0.13930796018438407, 1.0085926966877234, 4437658000000, 
0.052195166707387275, 0.31782244706098006, 1.007933542631452, 4437663000000, 
-0.1431786737540926, 0.133581969829133, 1.0064372976248501, 4437668000000, 
-0.05356071656555324, 0.2543683671556274, 1.004948545204502, 4437673000000, 
0.029373925429788828, 0.3234366768956159, 1.0024508731037747, 4437678000000, 
-0.15287153223760822, 0.15037904507936214, 1.0008350421289842, 4437683000000, 
0.006320580987067776, 0.35665760580988703, 0.9991676264827153, 4437688000000, 
-0.1718024642789106, 0.1280368820345242, 0.9971025262349702, 4437693000000, 
-0.038130316416461876, 0.23993095252014826, 0.9955984626620921, 4437698000000, 
0.03728896935082444, 0.34159265326775035, 0.9947932620716223, 4437703000000, 
-0.16577343551219376, 0.16904194955723403, 0.9942013300770635, 4437708000000, 
-0.047364320637357224, 0.310580055958401, 0.9941413833073546, 4437713000000, 
0.025175329136053665, 0.3233524206301512, 0.9937769665915454, 4437718000000, 
-0.15151163514184096, 0.20036926200336455, 0.9944324093889705, 4437723000000, 
0.015163899699527108, 0.3162236541807534, 0.9959633024806198, 4437728000000, 
-0.11863639519471181, 0.18692656785133416, 0.9964288202735192, 4437733000000, 
-0.08398020885831022, 0.2417108732923524, 0.9978862735186166, 4437738000000, 
0.047009259130189204, 0.359985410508464, 0.9987909050315653, 4437743000000, 
-0.19373531954964077, 0.1569078196556242, 1.0009007829220882, 4437748000000, 
-0.0030591722487344868, 0.2648216576030431, 1.0024731225904573, 4437753000000, 
-0.16034425015125245, 0.3339136639993052, 1.0042000155710054, 4437758000000, 
-0.016697883697866782, 0.15617854562551897, 1.006882261000746, 4437763000000, 
0.03174966373160024, 0.24635064703035822, 1.0083506224972947, 4437768000000, 
-0.14700819802609705, 0.32975753036694244, 1.010208244352799, 4437773000000, 
-0.023270303071493834, 0.1391866316145387, 1.0122931627659046, 4437778000000, 
-0.1053604419548909, 0.26029747626499994, 1.013488109245523, 4437783000000, 
-0.1441966958953261, 0.2986594124194679, 1.0152767264369424, 4437788000000, 
0.08566823532452846, 0.23256228802305745, 1.0164570717953512, 4437793000000, 
-0.2022100456305309, 0.27326469763474, 1.0164834824789923, 4437798000000, 
-0.07353557894814491, 0.37144271370358656, 1.018068298701878, 4437803000000, 
0.04106532671695272, 0.14639332510316042, 1.0189129140625788, 4437808000000, 
-0.11010716083086552, 0.23143070663083534, 1.0193306842143088, 4437813000000, 
-0.15595305977978793, 0.36870343135417855, 1.01953189206081, 4437818000000, 
-0.03531369412612544, 0.16669799414924308, 1.020705088857178, 4437823000000, 
-0.07275917218629153, 0.24327418850245253, 1.0218701111735535, 4437828000000, 
-0.17165425950065044, 0.3017347804574365, 1.023604331824174, 4437833000000, 
-0.08654291434463574, 0.32684113205014376, 1.0252068411953066, 4437838000000, 
0.189161687668002, 0.13825464910906024, 1.0273734618977552, 4437843000000, 
-0.020063136090456624, 0.2546235119018571, 1.0281423222344357, 4437848000000, 
-0.22033820976245283, 0.36097874130350527, 1.0283986509017213, 4437853000000, 
-0.055046227541026345, 0.3581098433673506, 1.0294729795053505, 4437858000000, 
0.10726137829044521, 0.16476434733766046, 1.0300463612743538, 4437863000000, 
0.03692079187676974, 0.20242308070620146, 1.0283096445427247, 4437868000000, 
-0.268908188245855, 0.3584525409143128, 1.0275057928823816, 4437873000000, 
-0.04598232917989453, 0.31292517367333667, 1.02688615759319, 4437878000000, 
-0.07228404973643275, 0.15434602599930577, 1.0264278527276178, 4437883000000, 
0.07076279851193369, 0.22029778478438355, 1.0255873541040013, 4437888000000, 
-0.07994602680013767, 0.236251592714751, 1.0224919565648298, 4437893000000, 
-0.2051608084098564, 0.2913535047032594, 1.0204649466066407, 4437898000000, 
-0.1340418671020427, 0.261341656722393, 1.0199607158800938, 4437903000000, 
0.12464562963358868, 0.2006787808919782, 1.0185733273450537, 4437908000000, 
0.005745532077863956, 0.201813649850443, 1.0176468332640578, 4437913000000, 
-0.16180831953862262, 0.2586449428957971, 1.014628635983384, 4437918000000, 
-0.16816227890852442, 0.1590870357482272, 1.0141574536729356, 4437923000000, 
0.07958492938759482, 0.22043477350371002, 1.012589680154455, 4437928000000, 
0.061329899927255405, 0.2704325142059832, 1.010550316806731, 4437933000000, 
-0.14590374806659917, 0.19559158349823136, 1.0077491043958633, 4437938000000, 
-0.024608323883092774, 0.22878072466261576, 1.0046621921206662, 4437943000000, 
0.029573649363504116, 0.31530612536158853, 1.0017682681216964, 4437948000000, 
-0.11745370130688879, 0.1857557495560187, 0.9986676564792221, 4437953000000, 
-0.04287548668952367, 0.22973334470259624, 0.9966088562619999, 4437958000000, 
0.058959354534873123, 0.293988241786072, 0.9933704615619842, 4437963000000, 
-0.14551460144874262, 0.21347796090525223, 0.991988802130873, 4437968000000, 
-0.042335517828722205, 0.2545353898946849, 0.9912307334519835, 4437973000000, 
-0.04703321680693647, 0.251358433791623, 0.9903749811021588, 4437978000000, 
-0.08897736958603278, 0.20779483482709393, 0.9907490768875371, 4437983000000, 
-0.06690827615318783, 0.24317714382482253, 0.9913716566668367, 4437988000000, 
-0.06473541239795454, 0.22664284600619442, 0.9926817826180206, 4437993000000, 
-0.02821547958183069, 0.24212755375359676, 0.9941127264046111, 4437998000000, 
-0.05733392084032546, 0.2634715218681926, 0.9961566070013831, 4438003000000, 
-0.07861012613820115, 0.26157113080405575, 0.9978689750599644, 4438008000000, 
-0.0581152035876482, 0.2665989014706945, 0.9998383167580628, 4438013000000, 
-0.04878312885624874, 0.22769745382745923, 1.0014434021374414, 4438018000000, 
-0.018351123499835774, 0.2582519706285677, 1.002712915939129, 4438023000000, 
-0.0799773925501005, 0.2617845157593263, 1.0039799604673183, 4438028000000, 
-0.056582409784246765, 0.2460022427990712, 1.0047409529966334, 4438033000000, 
-0.051542161251218084, 0.2377270871518588, 1.0049953264679068, 4438038000000, 
-0.05709930336111621, 0.23009104844165484, 1.005195611054666, 4438043000000, 
-0.07044953284369543, 0.24472615856321123, 1.0048464464657882, 4438048000000, 
0.05395195718335191, 0.26511157393813156, 1.0039237111957058, 4438053000000, 
-0.16323335592936225, 0.18853733557726443, 1.0028066475325006, 4438058000000, 
-0.055632062738032236, 0.23187896776190117, 1.0026223448833995, 4438063000000, 
0.030670320457001153, 0.2858618936928621, 1.0010658968433934, 4438068000000, 
-0.1783033921547985, 0.20025573803088476, 0.9998445944415779, 4438073000000, 
-0.07355269116119126, 0.24317261451604782, 0.9986865607748868, 4438078000000, 
0.04773220905337746, 0.2991468326080173, 0.997792046884933, 4438083000000, 
-0.17557439690622154, 0.2098328870040271, 0.9975160909123281, 4438088000000, 
-0.07439268113698325, 0.2536510539460252, 0.9968775640159193, 4438093000000, 
-0.04940992340531816, 0.281744151557988, 0.9960361745975098, 4438098000000, 
-0.08276456294213538, 0.25231190076677146, 0.9963305422856122, 4438103000000, 
-0.0627790433180035, 0.2499120582045762, 0.9966762791376516, 4438108000000, 
-0.042759560084799926, 0.26656300192771, 0.9965392637475642, 4438113000000, 
-0.054971201962452775, 0.2580728223051776, 0.9973893643053119, 4438118000000, 
0.05790620564830709, 0.27014179191990234, 0.9983800679813957, 4438123000000, 
-0.14791197763662492, 0.2493322717098327, 0.9984419640134683, 4438128000000, 
-0.07086421984241584, 0.2319632789279378, 0.9992697601947863, 4438133000000, 
0.03606630684899315, 0.2770825541299041, 1.000044072277539, 4438138000000, 
-0.15522028094428683, 0.19923959129717747, 1.00047137301689, 4438143000000, 
-0.07937432585825065, 0.24091549554741834, 1.000726595632986, 4438148000000, 
0.01891308573406976, 0.2575798557410034, 1.0013180356381506, 4438153000000, 
-0.14491039454975652, 0.19673315883250092, 1.0012945097366217, 4438158000000, 
-0.05558084472628669, 0.26194722728454645, 1.0017598291272682, 4438163000000, 
-0.06512093189310156, 0.2636938587278417, 1.0014358062874773, 4438168000000, 
-0.0775011520232922, 0.23681995603869876, 1.0011338287606628, 4438173000000, 
-0.039649578530673975, 0.22376419443444517, 1.0011393205200365, 4438178000000, 
-0.0387532225039922, 0.2606000095557384, 1.0006408415855037, 4438183000000, 
0.03534844945700337, 0.28604421661056345, 1.000176738880223, 4438188000000, 
-0.12015821645545653, 0.21887344814866325, 0.9995975074175988, 4438193000000, 
-0.044264021275941055, 0.2512300021718883, 0.9995618210494043, 4438198000000, 
-0.07231997144221033, 0.25987383779082696, 0.9990964430578836, 4438203000000, 
-0.05063936300044254, 0.23108443898874986, 0.9984635993949228, 4438208000000, 
-0.02514444422348537, 0.26052565741606704, 0.9990990782848685, 4438213000000, 
-0.02937571472745093, 0.21083648549608697, 0.9985791234175315, 4438218000000, 
-0.05476346124233304, 0.27825863525925265, 0.9983196503243038, 4438223000000, 
-0.01273874727486319, 0.23698210816504672, 0.9985686060066336, 4438228000000, 
-0.06234509452163751, 0.2620790097821848, 0.9987094758395232, 4438233000000, 
-0.05880012715389503, 0.22495910329658084, 0.998756509059769, 4438238000000, 
-0.05648166885693153, 0.2526704294221925, 0.9988677298293788, 4438243000000, 
-0.20764628728111326, 0.05830825085022848, 0.9998663687222198, 4438248000000, 
-0.03665201911425009, 0.2771807887679925, 1.001561435916696, 4438253000000, 
0.05464995720197841, 0.3518444983634826, 1.0024562258242007, 4438258000000, 
-0.0428070016698437, 0.2926702929691596, 1.0038063248362787, 4438263000000, 
-0.011412473660316919, 0.25684726148529374, 1.0046558891048372, 4438268000000, 
-0.07758100996607652, 0.18471105724087594, 1.0052822116498306, 4438273000000, 
-0.02312490143352642, 0.26870505597542826, 1.0049771251519048, 4438278000000, 
-0.02687872972804871, 0.2206932652400589, 1.0058888375064514, 4438283000000, 
-0.0446266724355457, 0.25965378214431933, 1.0060975803568988, 4438288000000, 
-0.021051421949290085, 0.3065808703886053, 1.0057865323042232, 4438293000000, 
-0.056579770326388217, 0.2373290942850947, 1.0055201600419201, 4438298000000, 
0.06178485875980448, 0.2988751927440158, 1.0052531402835057, 4438303000000, 
-0.1681626745202352, 0.2632537330728987, 1.0040205738281403, 4438308000000, 
-0.042012411196266086, 0.2269273718091124, 1.003332678025394, 4438313000000, 
-0.06895259036244854, 0.2551368090875229, 1.0022091816141185, 4438318000000, 
-0.05522089037256901, 0.24927196917526354, 1.0009241960654984, 4438323000000, 
-0.03203405614562162, 0.2715407658193803, 0.9998602704969085, 4438328000000, 
-0.039794074222554904, 0.2648628385016049, 0.998890313863886, 4438333000000, 
-0.06466636104149348, 0.23754184337930517, 0.9977723423992645, 4438338000000, 
-0.03337029162372153, 0.2580070618459389, 0.9973389244124706, 4438343000000, 
0.0611609201468955, 0.2636711258514536, 0.9966528906417433, 4438348000000, 
-0.18113208063866137, 0.2453719156628849, 0.9963102839089464, 4438353000000, 
-0.05344283506949488, 0.2299624807852956, 0.9967907054729123, 4438358000000, 
-0.032894925274066664, 0.23885414735764504, 0.9966658898803151, 4438363000000, 
-0.062220893063268265, 0.21684253463513498, 0.9970466536199178, 4438368000000, 
0.09032522319143463, 0.22374823792650977, 0.997713654520197, 4438373000000, 
-0.11801855802023489, 0.25505519443613023, 0.9984811969943538, 4438378000000, 
-0.027930676586354192, 0.2535598379409226, 0.9986957735342527, 4438383000000, 
0.05177546216436014, 0.24618805121817186, 0.9994690530657455, 4438388000000, 
-0.15995163611309118, 0.2704959235154405, 1.00058259465591, 4438393000000, 
-0.05057448838295677, 0.2296981152829338, 1.000711443269827, 4438398000000, 
0.040472885357044866, 0.23444823500559633, 1.0015087570791037, 4438403000000, 
-0.155467937384932, 0.2603131311774635, 1.001541944520133, 4438408000000, 
-0.07670469720958334, 0.2355703133064509, 1.002002297022512, 4438413000000, 
0.06019980414038959, 0.24516131472627875, 1.0017430144115274, 4438418000000, 
-0.17582157262020165, 0.2849055169117502, 1.001581064570872, 4438423000000, 
-0.06271939916146227, 0.26617876250711114, 1.001604863212508, 4438428000000, 
0.059316001484444866, 0.25279254831003073, 1.0013103621697386, 4438433000000, 
-0.18031715636654724, 0.24921862336256292, 1.0004024250419898, 4438438000000, 
-0.014878060235177779, 0.25747685347688726, 1.0001229730746986, 4438443000000, 
0.05206955722792731, 0.2420743242636835, 0.9998641407045281, 4438448000000, 
-0.19757523232113547, 0.24484432879934578, 0.999408169351955, 4438453000000, 
-0.013879782306882811, 0.21633808137476881, 0.9991559973513177, 4438458000000, 
-0.05506497962516378, 0.2676826475468153, 0.9989819715431479, 4438463000000, 
-0.08340642403429012, 0.30438088039649636, 0.998635981673157, 4438468000000, 
0.045924474862424104, 0.22801424518738822, 0.9982973340720184, 4438473000000, 
-0.18277108340560108, 0.26487602190200826, 0.9987700743039665, 4438478000000, 
-0.04684359552375589, 0.24923051066465207, 0.9988056854188181, 4438483000000, 
0.09394541274084439, 0.26762102561452805, 0.9987003984979717, 4438488000000, 
-0.18078813982147446, 0.2726361829263911, 0.9985440971417995, 4438493000000, 
-0.059270709491489, 0.2422320497263955, 0.999167176576077, 4438498000000, 
-0.14720985501111006, 0.15949980638225883, 0.9997119836286752, 4438503000000, 
-0.03845041793295324, 0.33637681299109345, 1.0016637796353278, 4438508000000, 
-0.0029746986452053713, 0.255934626492346, 1.002737067171005, 4438513000000, 
-0.11560574544758126, 0.1221610644776635, 1.0045324614926947, 4438518000000, 
-0.09887556087873718, 0.287985889966732, 1.007056592015304, 4438523000000, 
0.051838431451811134, 0.2790935650071762, 1.00870980727921, 4438528000000, 
-0.2129840025980628, 0.1722272246495757, 1.0116295539104747, 4438533000000, 
-0.04538489956048142, 0.25882298521475877, 1.0145981055430406, 4438538000000, 
0.11621882403503274, 0.2701575467796094, 1.0169411398383283, 4438543000000, 
-0.22544230684109845, 0.22648596481856337, 1.0185062174079575, 4438548000000, 
-0.1348712826312864, 0.22298480085088446, 1.0216126608600358, 4438553000000, 
0.10676621559584189, 0.32117494237201777, 1.0241366271941972, 4438558000000, 
-0.007295278507773732, 0.22596034852052413, 1.0252465447255041, 4438563000000, 
-0.23692770145664493, 0.24903737754590935, 1.025790499130147, 4438568000000, 
-0.08886135596154582, 0.28347009452496624, 1.0279578748585023, 4438573000000, 
0.19641447870813253, 0.3104088736922816, 1.0285751746576837, 4438578000000, 
-0.1057937778003697, 0.2163066711474699, 1.0276911119657821, 4438583000000, 
-0.19672832300908658, 0.24529473810679303, 1.0273547018851044, 4438588000000, 
-0.07120965775929514, 0.28824807135107766, 1.0281793471520997, 4438593000000, 
0.15539402958329462, 0.30946082773306177, 1.0277530511828143, 4438598000000, 
-0.12171211274928673, 0.19288354768820806, 1.025424085161359, 4438603000000, 
-0.1403710000051554, 0.27583858136894784, 1.024227407431523, 4438608000000, 
-0.061512820199967115, 0.2675347797439538, 1.0245660340628464, 4438613000000, 
0.1685301176145035, 0.294490207677634, 1.0235467524715915, 4438618000000, 
-0.06703766787510354, 0.22066055563975415, 1.0212077850475616, 4438623000000, 
-0.12231942225756172, 0.15915473343659672, 1.0199167499439779, 4438628000000, 
-0.07465461590012312, 0.36803750553923714, 1.0189089562027192, 4438633000000, 
0.06268069217473862, 0.2800166998999866, 1.0174305271298447, 4438638000000, 
-0.1663683325264487, 0.18066578746600884, 1.015092599701631, 4438643000000, 
-0.086781189985754, 0.29025513936774505, 1.0138942922493663, 4438648000000, 
0.10326145389891, 0.24993791880975272, 1.0116977331920962, 4438653000000, 
-0.04221306715254842, 0.2658138099693941, 1.0091637216802862, 4438658000000, 
-0.14535834842283685, 0.20760393955289988, 1.0074636597160849, 4438663000000, 
0.02109783648096103, 0.2426321740026958, 1.0053334750088883, 4438668000000, 
-0.03197364914329877, 0.24503547382530144, 1.002737822965238, 4438673000000, 
-0.026499622734711775, 0.2483408176603503, 1.000720461724553, 4438678000000, 
-0.05460174522757491, 0.24774750683136604, 0.9984338819223639, 4438683000000, 
0.0735127892412764, 0.15655713578383007, 0.9963893313720013, 4438688000000, 
-0.1610689436453025, 0.35008962484756007, 0.9949620158705478, 4438693000000, 
-0.05186519887034913, 0.2230240746123176, 0.9941690287419954, 4438698000000, 
0.07171273328499435, 0.1410886207353082, 0.9937917767093641, 4438703000000, 
-0.19850946169898695, 0.333327333795092, 0.9937593025779246, 4438708000000, 
-0.016547311913962737, 0.2350397990430377, 0.9935760353357316, 4438713000000, 
0.07892233228450046, 0.16582372619312621, 0.99492790017602, 4438718000000, 
-0.17762185366009178, 0.29379228540316416, 0.9954792965137494, 4438723000000, 
0.0315404531503094, 0.21094305582016493, 0.9968864742497618, 4438728000000, 
-0.14782254660993993, 0.3121967473661516, 0.9983776070265875, 4438733000000, 
-0.059556043605794244, 0.21272167464753838, 0.9995894458458233, 4438738000000, 
0.024993986375431376, 0.18011089908505493, 1.000985203912799, 4438743000000, 
-0.14102046619216252, 0.26745062758428584, 1.0022606664756968, 4438748000000, 
-0.026514594098238236, 0.23464963537552438, 1.003556015220554, 4438753000000, 
0.033757748809359694, 0.21897865113699091, 1.0039453754163499, 4438758000000, 
-0.1454112985672548, 0.24299141111467276, 1.004393566078085, 4438763000000, 
-0.06478626137571647, 0.23128827926697795, 1.0046463225898337, 4438768000000, 
0.03802778342554824, 0.25906573648827785, 1.0044266097570411, 4438773000000, 
-0.09947634754326654, 0.22195461782054665, 1.0040784380734509, 4438778000000, 
-0.053460026266074025, 0.21596228579357, 1.0037135023287487, 4438783000000, 
-0.008062170499463374, 0.25100651905435506, 1.0027666419805625, 4438788000000, 
-0.09399814421360797, 0.1906182020740226, 1.002118659341059, 4438793000000, 
-0.048941975059112325, 0.24131018932826737, 1.0006835428674399, 4438798000000, 
0.00799433781333688, 0.3052526305569716, 1.0000688855363504, 4438803000000, 
-0.12543623288962488, 0.17736228058919157, 0.9994836973838478, 4438808000000, 
-0.062417397585092106, 0.22234816244636618, 0.9992751173037577, 4438813000000, 
0.0070430375874549495, 0.3187581641974831, 0.9983278707305586, 4438818000000, 
-0.1112204331710663, 0.1764339137559362, 0.9980443796557522, 4438823000000, 
-0.026769406301604518, 0.2434834885921302, 0.998122425218846, 4438828000000, 
0.003171490828165211, 0.32557589501936157, 0.9982205056535555, 4438833000000, 
-0.09862741604821139, 0.18457282478494805, 0.9984751899013878, 4438838000000, 
-0.06145392919561419, 0.25024043758038983, 0.9982349069987556, 4438843000000, 
0.007962213201766006, 0.340748407590223, 0.9990835897814009, 4438848000000, 
-0.09581249902637347, 0.14073575545868844, 0.9994226579157082, 4438853000000, 
-0.058743755197286175, 0.22331864039923405, 0.9997164178754148, 4438858000000, 
-0.016774115964430642, 0.35661847070621083, 1.0002799847881532, 4438863000000, 
-0.08938328016646727, 0.12476044628067136, 1.0010822516077293, 4438868000000, 
-0.053283966905357256, 0.2370067338378792, 1.001450256288702, 4438873000000, 
-0.02927230347590991, 0.3771990409308235, 1.0015964745117414, 4438878000000, 
-0.07285384954272911, 0.10928212404225994, 1.001856271693753, 4438883000000, 
-0.06569984241851873, 0.28297814451602504, 1.0020509574794736, 4438888000000, 
-0.07255595040043102, 0.2413378830649396, 1.001780754315113, 4438893000000, 
-0.2996104623174682, 0.2952563117270039, 1.0027396069977819, 4438898000000, 
0.019943729192753085, 0.1494020899103749, 1.005293421795702, 4438903000000, 
0.06202794260069848, 0.2750709735994568, 1.0076898154761689, 4438908000000, 
-0.3234758932806594, 0.19255403870290086, 1.0091804979127381, 4438913000000, 
-0.2249324642033888, 0.1648752472097093, 1.0135219566772249, 4438918000000, 
-0.17897582007154111, 0.24993710291817045, 1.0186503174258936, 4438923000000, 
-0.08778491583440709, 0.4030677168539007, 1.0248400274090477, 4438928000000, 
0.30701356967128063, 0.1768735882920518, 1.0305165817162878, 4438933000000, 
0.09561143046048376, 0.2685140147823315, 1.0341189406766371, 4438938000000, 
-0.30856693167255944, 0.2473182437760141, 1.0359559618704417, 4438943000000, 
-0.154050044294263, 0.2044372194967411, 1.0380312295693568, 4438948000000, 
-0.08537552031160908, 0.39286358873717736, 1.0408036884665306, 4438953000000, 
-0.07861294538069033, 0.14526517915098655, 1.0430809213948078, 4438958000000, 
-0.13670870791991696, 0.24484181931737306, 1.0443921769502598, 4438963000000, 
-0.021978804038558834, 0.22975389255625056, 1.045938270082449, 4438968000000, 
-0.010348071477719758, 0.23936634068974538, 1.047293624370968, 4438973000000, 
-0.10480857991993565, 0.28462886729474446, 1.0484248588804843, 4438978000000, 
-0.04312331607440277, 0.31415261180760506, 1.0491850375470408, 4438983000000, 
0.016653938147621845, 0.21365538901620346, 1.0499417216610027, 4438988000000, 
0.021675633119869708, 0.3273539808412341, 1.0496713026485145, 4438993000000, 
-0.12200550429241391, 0.14965685479062715, 1.0491332656594936, 4438998000000, 
-0.022923212342452218, 0.28516935089481227, 1.0493540117517275, 4439003000000, 
0.035612877509201044, 0.3633680505366061, 1.0488173278173294, 4439008000000, 
-0.10187832400013193, 0.13228746138181952, 1.0473568211989828, 4439013000000, 
0.0988551211895031, 0.35064717447182686, 1.0447008723299422, 4439018000000, 
-0.03122064798643768, 0.3326257235177784, 1.0408739054419036, 4439023000000, 
-0.20932677601255578, 0.06181904860592053, 1.0382008788112465, 4439028000000, 
0.006849590797853243, 0.3718575915621994, 1.0344685101959477, 4439033000000, 
0.023067057082990984, 0.32018044987755745, 1.0310111008186842, 4439038000000, 
-0.04708573942888527, 0.1901087389426857, 1.0281616223708219, 4439043000000, 
-0.15770018117646217, 0.3996863251370424, 1.0259307764485528, 4439048000000, 
-0.09219278664883296, 0.09686244990592145, 1.02376180744299, 4439053000000, 
0.13721070999880694, 0.33045728537454044, 1.0213512858048213, 4439058000000, 
-0.13098598994348293, 0.2946371512794294, 1.0188095476127448, 4439063000000, 
-0.0524936062140924, 0.18221365222186942, 1.016926296457336, 4439068000000, 
0.01773915451542592, 0.3948477588547556, 1.0153391825887896, 4439073000000, 
-0.13176459219355102, 0.14501716367621204, 1.0136076726805539, 4439078000000, 
0.04379799495281371, 0.252817135574275, 1.0121277515909353, 4439083000000, 
-0.09540767701926031, 0.38772947125304036, 1.0101486515535645, 4439088000000, 
-0.063497463390393, 0.11616252104416237, 1.0090679962800433, 4439093000000, 
0.03395322614993304, 0.29551862801256445, 1.0077058813577098, 4439098000000, 
-0.17300488501405026, 0.3073634133709388, 1.0068748420687146, 4439103000000, 
0.05276328665311825, 0.1546957923587114, 1.0068752241065204, 4439108000000, 
0.03934969061071684, 0.3634865772778258, 1.0067304245017827, 4439113000000, 
-0.18955250561565395, 0.2539152548985303, 1.0070867375701609, 4439118000000, 
0.03171236111299764, 0.11306396898605754, 1.0076124692381399, 4439123000000, 
-0.009192275842914422, 0.3468743294951473, 1.007589227094897, 4439128000000, 
-0.22231532556907013, 0.1034296145813101, 1.0086406592406216, 4439133000000, 
0.07017185176705751, 0.31550988701973, 1.0101388898210308, 4439138000000, 
-0.14262160001013727, 0.27912805766588195, 1.0106935984710619, 4439143000000, 
-0.06836766421422527, 0.172785415881748, 1.0125172633704758, 4439148000000, 
0.06019865449280619, 0.3166627735582768, 1.0145196598301953, 4439153000000, 
-0.19520107762666497, 0.22946130824757568, 1.016021974931608, 4439158000000, 
0.02018749042642494, 0.24504336942910393, 1.017710926980976, 4439163000000, 
-0.07980890041482268, 0.3293924059887672, 1.0194020749256627, 4439168000000, 
-0.1841951291822428, 0.11864456704911178, 1.0213815131215465, 4439173000000, 
0.18244486034331794, 0.33844919977871707, 1.023200036030878, 4439178000000, 
-0.22093735281012966, 0.20348058333487523, 1.0249972335675859, 4439183000000, 
-0.11256299160125642, 0.20810592555628776, 1.0271336436578133, 4439188000000, 
-0.1670989685588557, 0.3405643705129774, 1.0297268124005097, 4439193000000, 
-0.0707169246311512, 0.21290887327779373, 1.0320521945499863, 4439198000000, 
-0.056661862562534804, 0.26884808196086163, 1.0350993401310091, 4439203000000, 
-0.13635169796917535, 0.20808037170832439, 1.0379027802676912, 4439208000000, 
-0.03429255010164183, 0.2846402635681339, 1.0404259457984344, 4439213000000, 
-0.040348850874376445, 0.3056441338796738, 1.0424903963034573, 4439218000000, 
-0.13669497061543118, 0.16722392610351802, 1.044940051682938, 4439223000000, 
-0.020290726919234607, 0.28152633922372955, 1.0458658504782052, 4439228000000, 
-0.13318445379951213, 0.29126741382123783, 1.0471485371912819, 4439233000000, 
-0.013365777556905437, 0.17491555359310407, 1.0485080981383008, 4439238000000, 
0.052125345192790544, 0.2821013907048353, 1.048220239274928, 4439243000000, 
-0.24772728202746538, 0.3041679989310254, 1.048672683786226, 4439248000000, 
0.01522770784833098, 0.25187412950674326, 1.0484765366272242, 4439253000000, 
0.08138858437300803, 0.25088555124962963, 1.048952619434865, 4439258000000, 
-0.18218194635468288, 0.3083797634689628, 1.047875504407349, 4439263000000, 
-0.06215455636527088, 0.30880502200555476, 1.0471863592487698, 4439268000000, 
0.02668940912913486, 0.1881277247120897, 1.0466403874785202, 4439273000000, 
-0.07276994598811223, 0.3036017792272331, 1.045485477219622, 4439278000000, 
-0.08098915894629424, 0.319006714227925, 1.0452355313097803, 4439283000000, 
0.03705825196516221, 0.23015810351505323, 1.0447435518813195, 4439288000000, 
-0.18158117666342985, 0.27793686323713546, 1.0434117778218244, 4439293000000, 
-0.029900914584223948, 0.259107871680601, 1.0432659944940876, 4439298000000, 
0.04827227090288933, 0.2920125679434184, 1.043333377378502, 4439303000000, 
-0.215256164522935, 0.24433742190368823, 1.042622358630653, 4439308000000, 
-0.038980104786127, 0.2634420569964368, 1.0424767714552015, 4439313000000, 
0.04352358190259168, 0.2605011760218941, 1.0428288941897748, 4439318000000, 
-0.24053847984779927, 0.2495207794721696, 1.042602098326206, 4439323000000, 
-0.04966001483314195, 0.2753209289777153, 1.0432191237685455, 4439328000000, 
-0.03483964841013577, 0.17902287380718973, 1.0437490578788595, 4439333000000, 
-0.11091803650234958, 0.2955216352663371, 1.0434579728950177, 4439338000000, 
-0.0807371926014009, 0.31690809450265234, 1.0439742577124684, 4439343000000, 
0.028015884635049906, 0.20048629304699045, 1.0442800181435483, 4439348000000, 
0.04887764983325229, 0.35139515043439107, 1.0444107122811277, 4439353000000, 
-0.23827945175377266, 0.2713281106043837, 1.044802148186479, 4439358000000, 
0.01883229336845467, 0.23161536203166735, 1.0450830207702988, 4439363000000, 
-0.02265067879985233, 0.25700470249419904, 1.0450252613946278, 4439368000000, 
-0.14506862860149727, 0.26643799693921444, 1.045029148777624, 4439373000000, 
-0.01976628938255101, 0.3022259125001334, 1.0452443755309442, 4439378000000, 
0.0003633607959526927, 0.2745986226578281, 1.0453025560908842, 4439383000000, 
-0.07403553637117327, 0.2773663098609687, 1.044431766620922, 4439388000000, 
-0.12269352827229454, 0.2817636452915291, 1.044677163056269, 4439393000000, 
0.034758254739294434, 0.26789689151808127, 1.0443021675189141, 4439398000000, 
0.03818079701322222, 0.3447363957871022, 1.044456159455227, 4439403000000, 
-0.258079072187375, 0.21025982288393968, 1.0436375897493078, 4439408000000, 
0.04847580208276781, 0.2534800678134072, 1.043723991115589, 4439413000000, 
-0.03701544397401768, 0.25210094963980006, 1.04393432918597, 4439418000000, 
-0.10291877019503165, 0.23862037828700494, 1.043012698473776, 4439423000000, 
-0.1279397303823993, 0.2549509860245545, 1.0434746956867833, 4439428000000, 
0.010657696992077227, 0.27903229418893943, 1.0431715026034993, 4439433000000, 
-0.05268449680086389, 0.27983362600961165, 1.04286126489642, 4439438000000, 
-0.1152623224983883, 0.2699524079243975, 1.0428239846858756, 4439443000000, 
-0.0601600861091107, 0.18589634848851316, 1.0424873698453332, 4439448000000, 
-0.014993913577348056, 0.2890139299674071, 1.042287383308356, 4439453000000, 
-0.049208887140373934, 0.2604842605144609, 1.0421037163124383, 4439458000000, 
0.019442957466981693, 0.27162123649734815, 1.0413953299547078, 4439463000000, 
-0.19605184533451103, 0.15581094647242222, 1.041093847929027, 4439468000000, 
0.031763435244146786, 0.3080620946104516, 1.0412165267056577, 4439473000000, 
-0.030845841731236126, 0.3026168624422343, 1.0407251208861898, 4439478000000, 
-0.03572651386052835, 0.25357074451193024, 1.0408462435841326, 4439483000000, 
0.01742754930558784, 0.16914506274863722, 1.0405699000313786, 4439488000000, 
-0.16568416665687874, 0.2872513979704983, 1.0403068456777853, 4439493000000, 
-0.017116111151557756, 0.3223337988513451, 1.0398545820620602, 4439498000000, 
-0.054400814062204865, 0.273724466607886, 1.040060095631652, 4439503000000, 
0.03479296172272113, 0.33620718747691436, 1.040201559920541, 4439508000000, 
-0.13377104731007233, 0.12486987796963883, 1.0399228292539777, 4439513000000, 
0.1410230513875684, 0.18772794508415708, 1.037537439041574, 4439518000000, 
-0.19910544667631158, 0.3260063915469812, 1.0339494265405185, 4439523000000, 
0.045612269473681376, 0.30825790132521474, 1.030518734329641, 4439528000000, 
-0.018844260762337115, 0.12581262003167584, 1.0269059591198486, 4439533000000, 
0.012936770609510602, 0.20068496493509788, 1.0224201499384733, 4439538000000, 
0.08841113673427205, 0.2657564177074662, 1.0161748196647873, 4439543000000, 
-0.15477399272028605, 0.19608376656369744, 1.009794684636345, 4439548000000, 
-0.04885979595724442, 0.2760121898709661, 1.0031234824575304, 4439553000000, 
0.0581289369660635, 0.2786705463903309, 0.9967571978832059, 4439558000000, 
-0.15678070576722652, 0.20357561136387808, 0.9912895108104272, 4439563000000, 
0.03314055444972673, 0.2714595418664087, 0.9862559240614626, 4439568000000, 
-0.13704892892653064, 0.18754492739319187, 0.9828593069644858, 4439573000000, 
-0.04405580325024583, 0.21951005924154948, 0.9808756841908088, 4439578000000, 
-0.005419854436240726, 0.24234232989636398, 0.9794652689001154, 4439583000000, 
-0.055775849081816084, 0.24168153522888464, 0.9808170897732301, 4439588000000, 
0.02298913930311676, 0.32723110711988385, 0.9823923838717201, 4439593000000, 
-0.18913444199934895, 0.18907028132204998, 0.9854801648522437, 4439598000000, 
0.03811169035023914, 0.2609688630594801, 0.9886464022539481, 4439603000000, 
-0.14700830690959096, 0.20009335988392862, 0.9921278927584933, 4439608000000, 
-0.0446691596123891, 0.23104244102227686, 0.9962993677809012, 4439613000000, 
0.04880167410201626, 0.2793876646353462, 1.0000155565351436, 4439618000000, 
-0.14413156237776054, 0.21151025827485734, 1.003118203404386, 4439623000000, 
-0.03939520487050848, 0.22886055289653653, 1.006565465618266, 4439628000000, 
0.03462984762865036, 0.23557755392509083, 1.0086497736714466, 4439633000000, 
-0.15248085580914417, 0.193147789278587, 1.0102699578337282, 4439638000000, 
-0.06130499666921005, 0.25091667329874995, 1.010645278819089, 4439643000000, 
0.07039753449136305, 0.28493134391800923, 1.0109213059435622, 4439648000000, 
-0.1645729844897243, 0.20785573068627072, 1.0097225231416238, 4439653000000, 
0.06879835553571312, 0.29334178636907526, 1.0083911017603104, 4439658000000, 
-0.14174714851083062, 0.24080943871474692, 1.006356143695249, 4439663000000, 
-0.04660984508563726, 0.26104715109231824, 1.0045136709265972, 4439668000000, 
-0.043827166221329136, 0.2397294852349776, 1.001711961442325, 4439673000000, 
-0.0812645843394755, 0.22396894213716578, 0.9994897425427666, 4439678000000, 
0.08118565753980685, 0.27199322184973046, 0.9975796914421968, 4439683000000, 
-0.16642452981518907, 0.22407897063027757, 0.9956278829622971, 4439688000000, 
-0.04898733462128848, 0.2635063852739809, 0.9941127178501548, 4439693000000, 
0.042697639537837465, 0.26724643481559085, 0.9930178412719536, 4439698000000, 
-0.16139009532740267, 0.2358798487321939, 0.992447503684188, 4439703000000, 
-0.09049832456052559, 0.26785154745538803, 0.9926553688609895, 4439708000000, 
-0.05053641671153203, 0.2550766895980117, 0.9931025893817736, 4439713000000, 
-0.05863500592240624, 0.2199745985516713, 0.9935786504685576, 4439718000000, 
-0.06317859439763529, 0.2408814158392836, 0.99504750193145, 4439723000000, 
0.03751613282915355, 0.27232010575467314, 0.9960434555268034, 4439728000000, 
-0.13366460737815783, 0.20166348601177947, 0.9972755248532499, 4439733000000, 
-0.043964251614137514, 0.22630488320455427, 0.9988086860462191, 4439738000000, 
-0.0037402866843284296, 0.2515014648426248, 1.0004057171019607, 4439743000000, 
-0.1488755862278489, 0.23540756836814383, 1.0010018641274843, 4439748000000, 
-0.03836952186884332, 0.24314111003890332, 1.0022674371572322, 4439753000000, 
-0.06995821718898104, 0.22285526205329742, 1.003172423598962, 4439758000000, 
-0.0337760942838113, 0.22808567126589288, 1.003241858205996, 4439763000000, 
-0.056254644320757274, 0.2408384245171166, 1.003667041735565, 4439768000000, 
-0.07085661055629129, 0.227746488752267, 1.0032566161562069, 4439773000000, 
0.028029400922719883, 0.24597158524192136, 1.0026472589477053, 4439778000000, 
-0.1548513260442559, 0.24383344016074143, 1.0022579203985063, 4439783000000, 
-0.0708334795123472, 0.23964468690518462, 1.0015687661422434, 4439788000000, 
0.04612960946736871, 0.26201167468191794, 1.0004930948519155, 4439793000000, 
-0.1589837381600629, 0.25680619971494767, 1.0000075505343466, 4439798000000, 
-0.05824688014505789, 0.24961588038429083, 0.9990403252793708, 4439803000000, 
0.08341398600265904, 0.26009969062687494, 0.9985562544325025, 4439808000000, 
-0.14467076494598174, 0.22759551375319617, 0.9980219565723313, 4439813000000, 
-0.062144126222765425, 0.27708576563201814, 0.9973178566514861, 4439818000000, 
-0.08246427509595108, 0.24540706844870966, 0.9967624507167439, 4439823000000, 
-0.02110039877454127, 0.2652501007448914, 0.9966070879305982, 4439828000000, 
-0.05479959528498697, 0.24863658868723537, 0.997488689453349, 4439833000000, 
-0.04976031370065222, 0.2197105082492499, 0.9971753535426866, 4439838000000, 
-0.08226514536628843, 0.23164326862604795, 0.997491228772822, 4439843000000, 
0.07021325330726161, 0.2591700746000539, 0.9980725385637357, 4439848000000, 
-0.17852082702859032, 0.2390595027122844, 0.998458018935965, 4439853000000, 
-0.02672354335624244, 0.2618163555979877, 0.9991478587370046, 4439858000000, 
-0.040195239290313545, 0.2617344561601304, 0.9992100422050234, 4439863000000, 
-0.07301746274831264, 0.2690024377214045, 1.0000595203606315, 4439868000000, 
-0.07513892297971168, 0.24175457155092533, 1.0000228140957959, 4439873000000, 
-0.06606083974343557, 0.22660615703541231, 1.000334712726086, 4439878000000, 
-0.04284258593646668, 0.21830566831247059, 1.0005093864449148, 4439883000000, 
-0.0750013946506854, 0.22092364402644324, 1.000834727572862, 4439888000000, 
0.07333052387073383, 0.23972367331452435, 1.0008519435914376, 4439893000000, 
-0.1440997808149397, 0.21204473491080575, 1.0004877907341214, 4439898000000, 
-0.023519193584155055, 0.2608094227531384, 1.000151557666385, 4439903000000, 
-0.059432902168443345, 0.2604529083860549, 1.0000301375668672, 4439908000000, 
-0.03501775629029466, 0.2455264763317169, 0.9999601955241811, 4439913000000, 
-0.028355658924172123, 0.2524990559417504, 0.9998515508069442, 4439918000000, 
-0.07190154008154759, 0.23062042787466464, 0.9994608162599232, 4439923000000, 
-0.06379182901901231, 0.2487429086888284, 0.9991536361231674, 4439928000000, 
-0.02947760267961169, 0.2294752036559198, 0.9986576829761168, 4439933000000, 
-0.06193803164014822, 0.25546636887610397, 0.9985118715176095, 4439938000000, 
0.04293106463665082, 0.21311213397559597, 0.9983637748802974, 4439943000000, 
-0.13201175755334318, 0.23721950594245944, 0.998389727844338, 4439948000000, 
-0.05556030308574624, 0.21604905794366505, 0.9983783395040884, 4439953000000, 
-0.037931920303563696, 0.23324151973151291, 0.998557373402022, 4439958000000, 
-0.05893139050392506, 0.21068889946889885, 0.9985673768454724, 4439963000000, 
0.0706956886971043, 0.2210900196567198, 0.9985443102942327, 4439968000000, 
-0.1481276928511992, 0.29152531389695485, 0.9986038460735778, 4439973000000, 
-0.0400156907641781, 0.25800222242575344, 0.9990109340113627, 4439978000000, 
-0.06742395690133424, 0.23907869938499485, 0.9992145955261931, 4439983000000, 
-0.06538049675133077, 0.22013672222988973, 0.9992081590042518, 4439988000000, 
-0.06282306275624727, 0.22882814946177985, 0.9995262820159065, 4439993000000, 
-0.08004459504506688, 0.21559222496895286, 0.9997634828468128, 4439998000000, 
-0.06857770433555219, 0.20047197305882644, 0.9997189184521085, 4440003000000, 
-0.07938301659975176, 0.2430809683062761, 0.9996561305894823, 4440008000000, 
-0.03051737771680402, 0.21821454978936572, 0.9996403216915144, 4440013000000, 
-0.09971729110314355, 0.24592014897380032, 0.9993305262972899, 4440018000000, 
-0.07101964427196297, 0.26171285361818725, 0.9996842572054813, 4440023000000, 
0.034511875741758444, 0.18786908514804007, 0.9994849973676703, 4440028000000, 
-0.16290340144732204, 0.28781427744674765, 0.9990976075631769, 4440033000000, 
-0.047908531542235774, 0.2586900783873616, 0.9991975226145522, 4440038000000, 
-0.053437330425403766, 0.2523633578451297, 0.9991673704494249, 4440043000000, 
0.03649781275163185, 0.23387340190335695, 0.9995022510638059, 4440048000000, 
-0.16261350670085223, 0.28079792428540423, 0.9992464989654793, 4440053000000, 
-0.01867011960917543, 0.27894920408395213, 0.9991175292449261, 4440058000000, 
-0.07453089656868014, 0.2550980257807882, 0.9989623470310774, 4440063000000, 
0.07298519756296044, 0.2409577593345835, 0.9989099946902322, 4440068000000, 
-0.16507180514276243, 0.26115307113531483, 0.999090292954328, 4440073000000, 
-0.015189954458539573, 0.24368216184691385, 0.9985242658000684, 4440078000000, 
0.04758803645873664, 0.22732375121248125, 0.999206034442006, 4440083000000, 
-0.16020224009425457, 0.27954858096190166, 0.998944508805998, 4440088000000, 
-0.059688795436918345, 0.22305007333812973, 0.9989816142997311, 4440093000000, 
-0.06065767746949723, 0.24672222357206183, 0.9991918935204518, 4440098000000, 
-0.06442429957825853, 0.24054793209836656, 0.9990983426403243, 4440103000000, 
-0.06193168504788611, 0.2611152713474462, 0.9995057706216913, 4440108000000, 
-0.01577801977192285, 0.2302989264413866, 0.9989432185404653, 4440113000000, 
0.07079717371050803, 0.20481706063687632, 0.9994659110805567, 4440118000000, 
-0.1590414513934163, 0.29000050847307723, 0.9994564043518279, 4440123000000, 
-0.08347740962949934, 0.2545402252966049, 0.9993905081683054, 4440128000000, 
-0.047220096537259455, 0.21941387036830015, 0.999715622356903, 4440133000000, 
-0.046251022839377924, 0.24894987561533893, 0.9993945996314684, 4440138000000, 
-0.10397884638949242, 0.2570263661418006, 0.9993859006561273, 4440143000000, 
-0.07026589361790811, 0.24645459443473966, 0.9996100873827382, 4440148000000, 
0.07493946529922055, 0.1797268881869192, 0.9993768496623827, 4440153000000, 
-0.17633365044068966, 0.2812034828416105, 0.9990909569032974, 4440158000000, 
-0.06096289854873335, 0.22717391817142504, 0.9992677108944495, 4440163000000, 
0.05602880644738326, 0.21239359216350187, 0.9988521192776786, 4440168000000, 
-0.1722093906520643, 0.29612917592130245, 0.9993010247802969, 4440173000000, 
-0.03615688245941231, 0.22014421260130046, 0.9991360314800404, 4440178000000, 
0.054022575872342174, 0.16465207728969522, 0.9991797258666214, 4440183000000, 
-0.171344353248282, 0.31506484625994435, 0.999242247059112, 4440188000000, 
-0.05622132773276921, 0.23290713988194744, 0.9989786343971259, 4440193000000, 
0.07589892760945645, 0.19175012201475225, 0.9989951525613069, 4440198000000, 
-0.2233294150273526, 0.2989168113519799, 0.9986486458711022, 4440203000000, 
-0.028524711002044536, 0.22782522093195942, 0.998785821457786, 4440208000000, 
0.05044180229533349, 0.1664130369028755, 0.9990682765637245, 4440213000000, 
-0.20555160710989673, 0.346737885437209, 0.9988696051403224, 4440218000000, 
-0.0590011912494328, 0.22514597267988262, 0.9991681470849622, 4440223000000, 
0.07882116607817413, 0.1796928706590209, 0.9993046613107454, 4440228000000, 
-0.24958585263122401, 0.37313152046596587, 0.9994509304803546, 4440233000000, 
-0.04248542110081612, 0.2125519050844807, 0.9994030062239599, 4440238000000, 
0.09558827321603258, 0.12620421521849962, 0.9992703617950865, 4440243000000, 
-0.18984731251434497, 0.37510021126352977, 0.9995148161142332, 4440248000000, 
-0.07227029044415725, 0.22779056371906095, 0.9994213465666273, 4440253000000, 
0.09134263417030448, 0.12566208099722218, 0.999302387567198, 4440258000000, 
-0.21648379383573593, 0.3043792439061444, 0.9994279183801791, 4440263000000, 
-0.027546439474981713, 0.23477508652484272, 0.9996023804501871, 4440268000000, 
0.06546214472230048, 0.18304555034892314, 0.9998411611403594, 4440273000000, 
-0.18650557593647074, 0.2602556925589872, 0.9993256832019387, 4440278000000, 
-0.05971618499108809, 0.2501459269008841, 0.9996035118709601, 4440283000000, 
0.0552034747334576, 0.22683463560243994, 1.000115244222167, 4440288000000, 
-0.14450624089570027, 0.26660180104635484, 0.9999171711351916, 4440293000000, 
-0.04463529971562414, 0.24598294742632665, 0.9997297577646477, 4440298000000, 
0.005016990565983672, 0.22072923751766138, 1.000039309699118, 4440303000000, 
-0.13191150491378345, 0.272044161875271, 1.0001354978197379, 4440308000000, 
-0.04079117826600112, 0.2443210172576859, 0.9996532357079077, 4440313000000, 
-0.0501582673165513, 0.24269386020889838, 0.9998543640161467, 4440318000000, 
-0.05199617828238258, 0.24539938992689, 0.9996513018916858, 4440323000000, 
-0.04711013336979216, 0.2485885739774475, 0.9995837991952098, 4440328000000, 
-0.07636296855248215, 0.27725222701394775, 0.9996322275984192, 4440333000000, 
-0.04363784367757969, 0.22768577403912704, 0.9996074650001676, 4440338000000, 
-0.040574226687674686, 0.2501308402846014, 0.9995338416920715, 4440343000000, 
-0.05993924903512304, 0.2547762222654634, 0.9998412267104211, 4440348000000, 
-0.11097837081659286, 0.2698036266571807, 1.0001574132118214, 4440353000000, 
-0.01132165635360129, 0.2238874913549603, 1.0006007894918294, 4440358000000, 
-0.0161842344372473, 0.24156804855742342, 1.0019666332506982, 4440363000000, 
-0.15451897798341013, 0.19650393119350465, 1.0028073380420528, 4440368000000, 
-0.2579056476805587, 0.3313308934280533, 1.004861087529531, 4440373000000, 
0.1084427299103314, 0.21021440912086284, 1.0068901608441814, 4440378000000, 
-0.016696533122191253, 0.24939793892299042, 1.0090344519128795, 4440383000000, 
-0.2889616291964647, 0.2593898940503055, 1.0110833592246726, 4440388000000, 
0.06916120108303266, 0.27669074739834515, 1.0139910682744022, 4440393000000, 
0.08305442496254002, 0.1857525359560666, 1.0160921509871306, 4440398000000, 
-0.006857975924900714, 0.25435359098435584, 1.017279468286355, 4440403000000, 
-0.2869819790357312, 0.41159440602016684, 1.018072437312189, 4440408000000, 
0.028829951945943844, 0.10686559279322658, 1.0197866856322482, 4440413000000, 
0.02236467686428286, 0.22959594085437598, 1.02040407532759, 4440418000000, 
-0.18522417679683495, 0.28044135397835296, 1.0195093057687743, 4440423000000, 
-0.03381606398812793, 0.1628514502625734, 1.0197818443752482, 4440428000000, 
0.028344928793784134, 0.265284661601059, 1.0190268737154902, 4440433000000, 
-0.14650456353362262, 0.3208923379436831, 1.0170130227269425, 4440438000000, 
0.016679179972499854, 0.12290392492924108, 1.0161797998570539, 4440443000000, 
0.04236625842020415, 0.30502603371520304, 1.0141290213892664, 4440448000000, 
-0.1661375532935962, 0.3723835579211204, 1.0111597634278342, 4440453000000, 
0.00258682051578946, 0.10664890386335817, 1.0095949861597089, 4440458000000, 
0.02900173501126061, 0.3011806712105981, 1.007156290526415, 4440463000000, 
0.024553002475958798, 0.2851508976438376, 1.0044843088877524, 4440468000000, 
-0.058288209735980055, 0.19551873901500316, 1.0016917119138016, 4440473000000, 
-0.00391627611695336, 0.4246401307858305, 0.999351041725098, 4440478000000, 
-0.09978766162455993, 0.01731685072621022, 0.9969108040682236, 4440483000000, 
-0.08429454477203847, 0.2538573276054833, 0.9957313531418684, 4440488000000, 
-0.050457437667434955, 0.4176091666929092, 0.9936782133611021, 4440493000000, 
-0.07343015325485006, 0.021116774451695325, 0.9926215221870106, 4440498000000, 
-0.051442780225106434, 0.27106677493596176, 0.9923963243317325, 4440503000000, 
-0.02720699073121162, 0.41809678529263977, 0.9920455634937981, 4440508000000, 
-0.10262959210018936, 0.03962763706353104, 0.9926334580708294, 4440513000000, 
-0.009869936047644065, 0.2954158696863607, 0.994129965183541, 4440518000000, 
-0.011553155937490827, 0.3872870820497564, 0.9950076731569524, 4440523000000, 
-0.10003182544516112, 0.08040088022995272, 0.9965009014752737, 4440528000000, 
-0.07460140282162858, 0.26456425399352046, 0.9981597460764143, 4440533000000, 
-0.022035075777788113, 0.41077573547437723, 0.9999099130442711, 4440538000000, 
-0.1074067223253133, 0.06925819053862275, 1.0012294687629442, 4440543000000, 
-0.014636866985506355, 0.4097966159747939, 1.0020943575210126, 4440548000000, 
-0.11840938924433123, 0.05035973772440749, 1.0026967667675215, 4440553000000, 
-0.04074095481656898, 0.2647690530410788, 1.004239874807958, 4440558000000, 
0.03279739382353126, 0.41524253114724885, 1.0047042847307721, 4440563000000, 
-0.10555219106983638, 0.09781574527455904, 1.0043006247431447, 4440568000000, 
-0.04745739296804064, 0.2689887151023202, 1.0046352764425166, 4440573000000, 
-0.0029415152402958115, 0.3833622338817278, 1.0035600168796697, 4440578000000, 
-0.09864480656545868, 0.11776685883948176, 1.0030014740747786, 4440583000000, 
-0.04493895283717289, 0.254062159186594, 1.002278423739284, 4440588000000, 
-0.010435555913169085, 0.3634179100431968, 1.0008255113032642, 4440593000000, 
-0.12275902055825648, 0.11257440249150111, 1.0001384136147813, 4440598000000, 
0.004493035916843826, 0.37139994418868394, 0.9997328176545649, 4440603000000, 
-0.12021987065698751, 0.13996081240912128, 0.9983125891521335, 4440608000000, 
-0.050266452181247444, 0.27156143848878267, 0.9980499477509199, 4440613000000, 
-0.10097914661939372, 0.35274536924390176, 0.9977317847439894, 4440618000000, 
-0.04634219132851325, 0.10284942075105716, 0.9987719392209863, 4440623000000, 
-0.011238196020841536, 0.25301546253930857, 0.9999890063877597, 4440628000000, 
-0.17586557292899893, 0.40202912204148084, 1.0012096900298986, 4440633000000, 
0.0018451638112517276, 0.12841132958187912, 1.0030428888345315, 4440638000000, 
-0.0033772884750653855, 0.23126726556351315, 1.0055964665556756, 4440643000000, 
-0.19251834576771873, 0.4143223909763656, 1.007599804434167, 4440648000000, 
0.043090298385221895, 0.07807187960110663, 1.0105594952541517, 4440653000000, 
-0.10476712194266483, 0.23538761182803294, 1.012762851142091, 4440658000000, 
-0.2672086259304658, 0.44370402621949395, 1.0159237411399644, 4440663000000, 
0.10687065773656566, 0.1107147608060238, 1.0183881751759962, 4440668000000, 
0.057588780080722476, 0.27486718931716886, 1.0203974967964318, 4440673000000, 
-0.2564516231865725, 0.43451371559315294, 1.0217260834138657, 4440678000000, 
-0.06608008406317553, 0.10778664679570257, 1.0237537203293554, 4440683000000, 
-0.23947335800788905, 0.3073069921349186, 1.0266718862496576, 4440688000000, 
-0.01674855969718616, 0.4530655979204845, 1.0297168106940413, 4440693000000, 
0.026555016537521226, 0.0635218516131795, 1.0328254676838797, 4440698000000, 
-0.15377955648305353, 0.333059399178284, 1.035276704771365, 4440703000000, 
-0.02495904019214543, 0.34060202986869437, 1.0382397659286662, 4440708000000, 
0.09113797814021496, 0.08084339131035788, 1.040530529043898, 4440713000000, 
0.1354300296034308, 0.23027522303707743, 1.0405274025778768, 4440718000000, 
-0.20182809116388367, 0.28269889187653724, 1.0390754724686815, 4440723000000, 
-0.040019815450454875, 0.3716259113541761, 1.0379278338659355, 4440728000000, 
-0.26793472303240523, 0.1117728455903517, 1.0369813610008791, 4440733000000, 
-0.004726678035738802, 0.32035974785388643, 1.0361646454890125, 4440738000000, 
-0.0022811920391871895, 0.38017128613609147, 1.0361286125477198, 4440743000000, 
0.07300692544275517, 0.11039637943635588, 1.0349783516218722, 4440748000000, 
0.04289358323680359, 0.23161241253762235, 1.0325686933582416, 4440753000000, 
-0.18055635769436396, 0.2764802995104571, 1.0294115028173616, 4440758000000, 
-0.09978962020308198, 0.3569280180722579, 1.0275190250893693, 4440763000000, 
0.07382451298048331, 0.08883426202903073, 1.0249025944385672, 4440768000000, 
-0.16169741914522856, 0.2691410127703466, 1.0220194650957455, 4440773000000, 
-0.02475701899114042, 0.38794251933048607, 1.01917393808933, 4440778000000, 
-0.15792997921665264, 0.059010927449886605, 1.018528804617105, 4440783000000, 
0.11784234313537631, 0.21668276918769225, 1.0171043934255406, 4440788000000, 
-0.15534798230265945, 0.2875819677764214, 1.0156206188400305, 4440793000000, 
-0.033324576813495876, 0.35623264806706084, 1.0149063905950872, 4440798000000, 
0.01943291923964034, 0.1329544040214304, 1.0146234723942065, 4440803000000, 
-0.01431097860799028, 0.2156432097114441, 1.0131726185504975, 4440808000000, 
-0.18537951351036533, 0.4096634803376302, 1.012492681170827, 4440813000000, 
0.054812788911132865, 0.11438331032370068, 1.0127922318536313, 4440818000000, 
-0.007540631547779803, 0.26091999699335083, 1.0115814478601945, 4440823000000, 
-0.18712349786028057, 0.39917338983861367, 1.0108005395543458, 4440828000000, 
0.016757080644225618, 0.11920921546931279, 1.0107894931666126, 4440833000000, 
0.00618644793668361, 0.23742836122320782, 1.010202124316546, 4440838000000, 
-0.11991172927701937, 0.36924171217786156, 1.0091323528284144, 4440843000000, 
-0.0337250599411952, 0.13116423176451977, 1.0093030612523721, 4440848000000, 
-0.004140588950835656, 0.24616417185318573, 1.0080504252715559, 4440853000000, 
-0.1425139551414079, 0.3657667793718375, 1.0071201632137747, 4440858000000, 
0.037941746912223843, 0.1511277329635484, 1.0071939353907895, 4440863000000, 
0.08267516091008462, 0.3254282282270804, 1.005593786376031, 4440868000000, 
-0.12192766043577498, 0.20028031445532096, 1.004367680422442, 4440873000000, 
-0.022932044644982153, 0.28685800181332616, 1.0027995114637762, 4440878000000, 
0.019241604186956616, 0.3165755529331798, 1.0010503182538644, 4440883000000, 
-0.1257673376708345, 0.17982530505114835, 0.9994767389148073, 4440888000000, 
-0.06102661074531113, 0.3135384791079297, 0.998160598460387, 4440893000000, 
0.015807575415389036, 0.28845168374569197, 0.9966540515463262, 4440898000000, 
-0.1265725701636133, 0.17714525417107815, 0.9959021956894126, 4440903000000, 
-0.04973948171697446, 0.24020427494721594, 0.9953415982590172, 4440908000000, 
0.03255196703388036, 0.29709401222473397, 0.9947780168331033, 4440913000000, 
-0.16447081502983973, 0.17427618757509164, 0.9948010909782129, 4440918000000, 
-0.04034158083222434, 0.2401851726431268, 0.9954591411646597, 4440923000000, 
0.04572386417390696, 0.3157844941821679, 0.9961485103313877, 4440928000000, 
-0.15708724514796038, 0.17501561056476683, 0.9968439714456135, 4440933000000, 
-0.016302264411386214, 0.23445328063945026, 0.9975218498785325, 4440938000000, 
0.059917556051539395, 0.3509374581151219, 0.9986260920288919, 4440943000000, 
-0.15631029436514945, 0.18183113613874324, 0.9996031481266022, 4440948000000, 
-0.059615908143679966, 0.24469802167083693, 1.000556104278653, 4440953000000, 
0.03955146240368359, 0.3122592544630241, 1.0011156315833494, 4440958000000, 
-0.13562352721364984, 0.16132994974488565, 1.0018805083753142, 4440963000000, 
-0.047986007912928404, 0.24287106431314645, 1.0026912177761675, 4440968000000, 
-0.0860729261143773, 0.23265701152662732, 1.002429984369198, 4440973000000, 
-0.06318262325460913, 0.26031843733331006, 1.0027202484438185, 4440978000000, 
0.0290963756926765, 0.29431482906059897, 1.002722456476411, 4440983000000, 
-0.13884838439374525, 0.18390886844383553, 1.0021752848223289, 4440988000000, 
-0.04981924224002097, 0.2715670297510263, 1.0016773732275595, 4440993000000, 
0.028335755030462036, 0.33577094115246947, 1.0014140183635556, 4440998000000, 
-0.16290402314998365, 0.1853510255430586, 1.0006610043453474, 4441003000000, 
-0.04583881891290421, 0.22312726534852953, 1.0001776607249564, 4441008000000, 
0.020961445295309168, 0.25954338454776815, 0.9992111007165374, 4441013000000, 
-0.14629806998830724, 0.23422050706498104, 0.9991100924416009, 4441018000000, 
-0.04518006534717393, 0.23058475818194538, 0.9987050539692695, 4441023000000, 
-0.040207730108969, 0.30409036378926513, 0.9988113162078318, 4441028000000, 
-0.13201961032667592, 0.1958267375206655, 0.999357907233346, 4441033000000, 
0.01945991202613966, 0.2833612117114065, 1.000500519940388, 4441038000000, 
-0.03887784975570444, 0.2551744263061196, 1.0008892950415478, 4441043000000, 
-0.15585963879410145, 0.2838439093400258, 1.002701668819609, 4441048000000, 
-0.04934880155125587, 0.174849067972399, 1.0044504087741222, 4441053000000, 
-0.014460582136353727, 0.26627189446253763, 1.006229066679732, 4441058000000, 
-0.0694620683635192, 0.2342941024256017, 1.0072504821534787, 4441063000000, 
-0.2550266259800239, 0.2662114518759805, 1.0093324922209892, 4441068000000, 
0.08524593014690711, 0.23933425060459002, 1.0114460739838957, 4441073000000, 
0.02002813522153322, 0.24854408278961482, 1.0123127473925804, 4441078000000, 
-0.18359598154584164, 0.2595342744990054, 1.0126966034073936, 4441083000000, 
-0.2068714798856287, 0.32324190931454666, 1.0154551413450073, 4441088000000, 
0.10355564397849804, 0.17246448376763027, 1.017426359640488, 4441093000000, 
0.02463097209404897, 0.22135407104480365, 1.0189649702785804, 4441098000000, 
-0.02033084598107954, 0.23692899195511133, 1.0190400273747569, 4441103000000, 
-0.3219644621270734, 0.26159653726839577, 1.0190073080789468, 4441108000000, 
0.00465785835449737, 0.2114816474462692, 1.019485528833089, 4441113000000, 
0.033440157843035105, 0.24971749895627668, 1.019583102091212, 4441118000000, 
-0.04435259938137087, 0.24726326428407905, 1.0175180832125328, 4441123000000, 
-0.13706125700581892, 0.2960593602216649, 1.015384691385132, 4441128000000, 
-0.0374187967209544, 0.18383894647338106, 1.0138632127292329, 4441133000000, 
0.014807138263363207, 0.24504510671000695, 1.0114284509644078, 4441138000000, 
-0.025638143958781865, 0.26854045973921126, 1.008522963236199, 4441143000000, 
-0.07718188623851853, 0.2051201909143943, 1.0051636287434014, 4441148000000, 
-0.023992691672877098, 0.2834804320185899, 1.0019879738876865, 4441153000000, 
-0.07247276497881272, 0.22188637019389282, 0.9994531121215539, 4441158000000, 
-0.06454695471008762, 0.23286481680826107, 0.995638910400826, 4441163000000, 
-0.035806643239019054, 0.2500052727899825, 0.9932017090797638, 4441168000000, 
0.02038390731845862, 0.29221673632343476, 0.9912228828352571, 4441173000000, 
-0.1525586124401164, 0.21630504341027054, 0.9906452848301159, 4441178000000, 
-0.026835810868702053, 0.23472575128945233, 0.9900583058629505, 4441183000000, 
0.0476307629338517, 0.2681146405170404, 0.9903102790648556, 4441188000000, 
-0.17480240794851326, 0.22731615238550865, 0.9910116625649246, 4441193000000, 
-0.06253149418789278, 0.24543900436242358, 0.9928051178321396, 4441198000000, 
-0.0038931998610774524, 0.2615693099221238, 0.9939118389732446, 4441203000000, 
-0.1642979487811797, 0.21746681161606662, 0.9964662099024107, 4441208000000, 
-0.07016801616416976, 0.222351424248222, 0.9979843405106581, 4441213000000, 
0.019609815364174964, 0.2660861754213055, 0.9999500310791568, 4441218000000, 
-0.14962016558955377, 0.22215445869117112, 1.0017317616260029, 4441223000000, 
-0.030093277883552327, 0.25386468945916124, 1.0031062907443555, 4441228000000, 
0.02911686576927379, 0.23841923182638453, 1.0041884203127693, 4441233000000, 
-0.14009170304605684, 0.21227678430657873, 1.004683205541738, 4441238000000, 
-0.043217439505210356, 0.2514137192806841, 1.0052438307659055, 4441243000000, 
0.06918727489087279, 0.25633743421016947, 1.0058105708587985, 4441248000000, 
-0.1605418159392517, 0.20838955494390027, 1.0049600351414796, 4441253000000, 
-0.04415308746704556, 0.26059200981246267, 1.0043904831148958, 4441258000000, 
0.03966028156260658, 0.2696459540006122, 1.003109741237378, 4441263000000, 
-0.15801739737476383, 0.25755403768283186, 1.002125686579019, 4441268000000, 
-0.03304396392304193, 0.24131012024896736, 1.0016393540148933, 4441273000000, 
0.025970355877950848, 0.2899558074530003, 0.9998619851724789, 4441278000000, 
-0.13687023920553484, 0.22487450144717888, 0.9989600152441159, 4441283000000, 
-0.03277846654245302, 0.23385719035772348, 0.9978691292930968, 4441288000000, 
0.022647814360522975, 0.2667528030902332, 0.9971472543516556, 4441293000000, 
-0.16190534499382087, 0.23934343910463707, 0.9968396818669272, 4441298000000, 
-0.04768624852231532, 0.24829686774860582, 0.9963172503277697, 4441303000000, 
0.03260399585324239, 0.24639753543366943, 0.9962989275297789, 4441308000000, 
-0.17447747693949295, 0.22762704808630774, 0.9962295872534208, 4441313000000, 
-0.08250788933496217, 0.2609108901352016, 0.9968734339569159, 4441318000000, 
0.04905779400200888, 0.22277046894144759, 0.9974873822335821, 4441323000000, 
-0.16899040002873217, 0.23241499426239953, 0.9981999375355711, 4441328000000, 
-0.062416081787399894, 0.24308123240518095, 0.9987519660252397, 4441333000000, 
0.03414198305905107, 0.2616152237382859, 0.9992673430760299, 4441338000000, 
-0.1356490549229793, 0.29614385080649164, 1.0001676004753637, 4441343000000, 
-0.06038091070734666, 0.2519259499569417, 1.0008066270760123, 4441348000000, 
0.03962748152515904, 0.29118184750390425, 1.001084142480958, 4441353000000, 
-0.16439992059359718, 0.23497632458056505, 1.0014649860857003, 4441358000000, 
-0.04775741032829021, 0.2762428350070162, 1.0017020198355773, 4441363000000, 
0.03859290787695932, 0.27678893517024383, 1.001851922083568, 4441368000000, 
-0.1702275282178426, 0.2355116265922545, 1.0012639504320995, 4441373000000, 
-0.044800842064147174, 0.2680269542416244, 1.0012986501069856, 4441378000000, 
-0.047165148929864245, 0.22674502980100647, 1.0011402565209107, 4441383000000, 
-0.17766356739560393, 0.14971484500736562, 1.0014493045561794, 4441388000000, 
0.0065980848913250074, 0.3320697717743573, 1.0017913125824898, 4441393000000, 
0.004029137821953098, 0.23741937787543946, 1.0019872166125756, 4441398000000, 
-0.20796455476186615, 0.22213949182200418, 1.0027190883892692, 4441403000000, 
-0.09767716384233295, 0.253847331147727, 1.0044280368069556, 4441408000000, 
0.037970161368461174, 0.27291579374199637, 1.005940395262689, 4441413000000, 
0.003932148346857102, 0.22613620086334585, 1.0067448579861589, 4441418000000, 
-0.2949029413333959, 0.202880752043073, 1.0082469775942604, 4441423000000, 
0.009053263499542727, 0.27204791120764704, 1.011502850953068, 4441428000000, 
0.10276761156687485, 0.28390757610387135, 1.0130716055101319, 4441433000000, 
-0.0037443942731816204, 0.2452862093909436, 1.014452970412751, 4441438000000, 
-0.28521902874461774, 0.21653768866851184, 1.0148920300496487, 4441443000000, 
0.020252794679466196, 0.26823259596407945, 1.0168022918727198, 4441448000000, 
0.09531583714394588, 0.26569807445027044, 1.0174168648997695, 4441453000000, 
0.013256287092301994, 0.21511111100750901, 1.017124990613717, 4441458000000, 
-0.16953008193901703, 0.18259299153396397, 1.0164175314380102, 4441463000000, 
-0.04395855552817633, 0.24286302651514913, 1.0160862703514701, 4441468000000, 
0.030319577499020412, 0.26932410517760647, 1.014341556650179, 4441473000000, 
0.03356920118429952, 0.21074059305600357, 1.0122525320759572, 4441478000000, 
-0.18158794009733042, 0.3116272025784825, 1.0109338446045637, 4441483000000, 
0.01422058785699548, 0.2721890787302988, 1.0077611958457535, 4441488000000, 
0.058916893086451746, 0.24370322642306005, 1.0049611865641226, 4441493000000, 
-0.15770218399994815, 0.256751190289036, 1.0020694614433936, 4441498000000, 
-0.060558806366876564, 0.25377250659124273, 0.9993532190627157, 4441503000000, 
0.046061070578142155, 0.219791785924417, 0.9965739210125938, 4441508000000, 
-0.16933889200052601, 0.24209691602395486, 0.9944869099660174, 4441513000000, 
-0.06767590381947416, 0.256874730510011, 0.9929961998457488, 4441518000000, 
0.06967141073886411, 0.2507130469078148, 0.9920147753822375, 4441523000000, 
-0.17808208799535155, 0.24588742317804752, 0.9910053515571087, 4441528000000, 
-0.051474068639135555, 0.2638100530597276, 0.9913043197356233, 4441533000000, 
-0.048298914540222254, 0.24199487304455827, 0.9921559600201966, 4441538000000, 
-0.06701425578695208, 0.2456729432237115, 0.9934500130651538, 4441543000000, 
-0.022587057012790245, 0.21276237130187142, 0.9948552385271227, 4441548000000, 
-0.04840606745598447, 0.23501237402256692, 0.9962220318995206, 4441553000000, 
-0.06193724707063093, 0.25039356760798437, 0.9977527338907826, 4441558000000, 
-0.05937200559734347, 0.25868223143600855, 0.9998286536076267, 4441563000000, 
-0.04160456351694038, 0.26579259381811937, 1.0010379014093005, 4441568000000, 
-0.06348598355719312, 0.23211743620892444, 1.0026166233043963, 4441573000000, 
0.05882262903753736, 0.24509499815117997, 1.0035710597674743, 4441578000000, 
-0.1620112365974194, 0.26880950951074223, 1.0045961503481426, 4441583000000, 
-0.06175755536814241, 0.27200116581423783, 1.004711458490377, 4441588000000, 
0.03478434693608753, 0.2690598484208697, 1.0049364689480556, 4441593000000, 
-0.1720246734353879, 0.2879053547259507, 1.003995484856439, 4441598000000, 
-0.03495285544314855, 0.2587062961171417, 1.003814610025505, 4441603000000, 
0.047014596324743946, 0.2189781553233215, 1.002848938573058, 4441608000000, 
-0.192474455502829, 0.25337749829040035, 1.0023643204609054, 4441613000000, 
-0.043510950868810315, 0.24522945419762515, 1.0010598317158366, 4441618000000, 
0.04973536997473274, 0.2069647242393999, 1.0002760709730063, 4441623000000, 
-0.1829402039958859, 0.26155365809448394, 0.9991961168600988, 4441628000000, 
-0.04520973687034849, 0.2691522880248814, 0.9979766667246168, 4441633000000, 
0.05892633474394719, 0.25673274330132456, 0.9974261540692628, 4441638000000, 
-0.1808094246617338, 0.2772991645256422, 0.9971234006139605, 4441643000000, 
-0.03819585664767794, 0.22924098128853654, 0.9966750509972252, 4441648000000, 
0.06902584967254913, 0.17886165474986684, 0.9967745234044616, 4441653000000, 
-0.16505005928158809, 0.29698913961396234, 0.9968780443318815, 4441658000000, 
-0.05348581081474044, 0.2623011305936381, 0.9973565126034786, 4441663000000, 
0.0883697330874217, 0.22552779092447964, 0.997616838523988, 4441668000000, 
-0.1793900228800569, 0.30035751065510635, 0.9983308607570072, 4441673000000, 
-0.04843468996190031, 0.22781042933574236, 0.9987874211532438, 4441678000000, 
-0.04144600412094849, 0.2184055452289089, 0.9994116417384823, 4441683000000, 
-0.03361761651501155, 0.22892841666079145, 1.0002601811889555, 4441688000000, 
-0.06426312091692099, 0.25066787236552934, 1.0006430455112887, 4441693000000, 
-0.051952583554981835, 0.24582396714555957, 1.0008483023236714, 4441698000000, 
-0.060892775090099556, 0.2534246818121946, 1.001260236594194, 4441703000000, 
-0.05370466760386594, 0.2720989128727277, 1.0012658243534172, 4441708000000, 
-0.07091587185483067, 0.2583940966974261, 1.0014131535122248, 4441713000000, 
-0.2067488943807861, 0.10173421413975019, 1.0019003318321917, 4441718000000, 
-0.027096563730943178, 0.3617722554206477, 1.0032630801515043, 4441723000000, 
0.012869529191150513, 0.28568983344488896, 1.0042889451961832, 4441728000000, 
-0.1328414337556789, 0.19800128179754353, 1.0049726336068967, 4441733000000, 
-0.16803088653705334, 0.2464265398395651, 1.0067574724629482, 4441738000000, 
0.101434890797652, 0.3121558273808899, 1.0077469210178622, 4441743000000, 
-0.023329590742714623, 0.29861644188757197, 1.0086287394335325, 4441748000000, 
-0.18374635531824074, 0.15204846634454652, 1.0096947528849538, 4441753000000, 
-0.10929092660202597, 0.2982725801529248, 1.0114356401329394, 4441758000000, 
0.0998683492283617, 0.2999870654938839, 1.0122031999161492, 4441763000000, 
-0.017851990899847455, 0.24521093542688976, 1.0123709410596495, 4441768000000, 
-0.11790115099940199, 0.09558815079512194, 1.0125718983419867, 4441773000000, 
-0.09568000724387273, 0.3661302317669016, 1.0126626049236913, 4441778000000, 
0.028224571874498512, 0.2497264890613292, 1.0123530159501537, 4441783000000, 
-0.10877633773543152, 0.21635634975112375, 1.0113730579948863, 4441788000000, 
-0.11944593942598682, 0.26926972015309614, 1.010956501769543, 4441793000000, 
0.08090867313542226, 0.306603675279823, 1.0098526509136199, 4441798000000, 
-0.02362963382231829, 0.25753631835864316, 1.007899410146518, 4441803000000, 
-0.17034704778645002, 0.16980244675065037, 1.0066378224360857, 4441808000000, 
0.04518189434214471, 0.2816412669020189, 1.0051787977664046, 4441813000000, 
-0.017547638079837707, 0.2759507498554636, 1.0037254359866838, 4441818000000, 
-0.0071846697566830785, 0.2075873293362178, 1.0021032671268746, 4441823000000, 
-0.06623754009359366, 0.2365305479163068, 1.0005414542838913, 4441828000000, 
-0.022446973769562673, 0.22986992634451534, 0.9987698355773498, 4441833000000, 
0.08835136488649628, 0.19841168576463, 0.9975387883536972, 4441838000000, 
-0.168177919264531, 0.3004838451100622, 0.9966182998403657, 4441843000000, 
-0.057984174224496844, 0.21943169495718423, 0.9957302182803763, 4441848000000, 
-0.03882700665178848, 0.2319264066349387, 0.9956615082175257, 4441853000000, 
-0.054536760171368937, 0.26917729636455895, 0.9958387248505222, 4441858000000, 
-0.02555329497304112, 0.24891707209516326, 0.9960050030121483, 4441863000000, 
-0.06505329750659439, 0.2122167506870073, 0.9965597104656874, 4441868000000, 
-0.06573906573594439, 0.2381697430254567, 0.9974668203316455, 4441873000000, 
-0.09360339687564052, 0.22350446642104604, 0.9983160825112408, 4441878000000, 
0.011272696853577685, 0.24839254952729853, 0.9988966497757932, 4441883000000, 
-0.13478671737900513, 0.21234666024085716, 0.9999004787601583, 4441888000000, 
-0.0006228014122314565, 0.22313187270177337, 1.0011870330033228, 4441893000000, 
0.03179309250072565, 0.2651442738012287, 1.0014176363050948, 4441898000000, 
-0.10024641771077927, 0.2048375048237315, 1.0027139223091635, 4441903000000, 
-0.04472242713198616, 0.28568908121213366, 1.0028606912569975, 4441908000000, 
0.0037793404113360208, 0.27550446250421873, 1.003390768514605, 4441913000000, 
-0.14043170557864712, 0.18836053165081892, 1.0034840379867378, 4441918000000, 
-0.05772816056225519, 0.25627234268549826, 1.002913333525793, 4441923000000, 
-0.012362284741330132, 0.31588618023456927, 1.002089252084212, 4441928000000, 
-0.13272032063912523, 0.15705306482128956, 1.002120228512134, 4441933000000, 
-0.042385779457152356, 0.2345314362341146, 1.0021899309623874, 4441938000000, 
0.0016346537178488522, 0.32921579438930354, 1.001422173173582, 4441943000000, 
-0.12085315861770461, 0.1267215385393354, 1.0005251974897913, 4441948000000, 
-0.07558314166829079, 0.2539713948197402, 1.000296472338313, 4441953000000, 
-0.013090935331310966, 0.3502416131962653, 0.9996427512857514, 4441958000000, 
-0.1053379890921455, 0.12302338071307437, 0.9992499360955367, 4441963000000, 
-0.059461541036584145, 0.24329685861729985, 0.9992107705377445, 4441968000000, 
-0.02863783351311529, 0.3920683873892876, 0.9987059011685447, 4441973000000, 
-0.09138089756344574, 0.12910032854081435, 0.9989323166052375, 4441978000000, 
-0.05109705473510723, 0.2225562050646687, 0.9988961778600053, 4441983000000, 
-0.13758060105555842, 0.21251202249770154, 0.9993810905166984, 4441988000000, 
-0.011415158084973719, 0.23115855139496838, 1.0001927865067892, 4441993000000, 
-0.0580357591756476, 0.2511420445859244, 1.0010218113148037, 4441998000000, 
-0.21311929696500517, 0.21834028039096454, 1.002421882345363, 4442003000000, 
0.06674033320588295, 0.2711647377115979, 1.0048665362921287, 4442008000000, 
-0.10178751201405208, 0.2634414564642931, 1.006543842331115, 4442013000000, 
-0.17948068681244414, 0.14032449724021637, 1.0088125729652264, 4442018000000, 
0.08007551916604262, 0.2796052191560328, 1.0116415945019297, 4442023000000, 
-0.16823315972186537, 0.24741765394726023, 1.0135850478185837, 4442028000000, 
-0.10148043622712774, 0.202010404469214, 1.0164560609677236, 4442033000000, 
0.09589738273208644, 0.30523600805587836, 1.0182469198010706, 4442038000000, 
-0.24562739741618547, 0.21726842390416506, 1.0202258985268462, 4442043000000, 
-0.00541013000775846, 0.2202451773872483, 1.0219429079575995, 4442048000000, 
0.1114076612179058, 0.322843980126929, 1.0237267349640078, 4442053000000, 
-0.27407275324496866, 0.16409667724369162, 1.0240653029067164, 4442058000000, 
-0.09444715116934808, 0.22959352200554406, 1.0258531922373924, 4442063000000, 
0.18491604671399162, 0.3464471147890326, 1.0261320087390173, 4442068000000, 
-0.2634121781324021, 0.17399105572247067, 1.0269791136640798, 4442073000000, 
-0.06303096628596228, 0.23372314099687438, 1.02879613147698, 4442078000000, 
0.14287588254423955, 0.32160832863946537, 1.0293471555459093, 4442083000000, 
-0.22075070833146984, 0.17595384150195667, 1.0303894419793433, 4442088000000, 
-0.05008458173444508, 0.2407043442192302, 1.0310478376690766, 4442093000000, 
0.16029942163996003, 0.3482342765227613, 1.0311460415104219, 4442098000000, 
-0.17710363530330533, 0.2092556534683991, 1.02991167674088, 4442103000000, 
-0.099104561902563, 0.322009160237263, 1.029116028000063, 4442108000000, 
0.06250095877465112, 0.18601194714525313, 1.0287396883778108, 4442113000000, 
-0.14916924199779166, 0.26943518447783776, 1.0268891221538186, 4442118000000, 
-0.05311953980723628, 0.3217149051810111, 1.0261603259444463, 4442123000000, 
0.0673235556701365, 0.18098570239882644, 1.0260305775679315, 4442128000000, 
-0.15597191411457434, 0.26254410334450523, 1.0250833732743314, 4442133000000, 
-0.08582891222083902, 0.31374205747295236, 1.0238871782958017, 4442138000000, 
0.06674290690708518, 0.2149847883257696, 1.0243594368695799, 4442143000000, 
-0.14445111632352858, 0.22484161078931916, 1.0238042274596102, 4442148000000, 
-0.20373246352712052, 0.17358346391412185, 1.0236371152944244, 4442153000000, 
0.19888560791038182, 0.3769036377655217, 1.0232827030804614, 4442158000000, 
-0.1694518019539082, 0.2991869391887632, 1.0241498318279367, 4442163000000, 
-0.15275225999810174, 0.10316347713937074, 1.0244401386425874, 4442168000000, 
0.04383323533122907, 0.34733600094614053, 1.0246917016640045, 4442173000000, 
-0.11960552894276523, 0.24439712004221134, 1.0248896936644072, 4442178000000, 
-0.09348927142501048, 0.1986786964795552, 1.0266517465561622, 4442183000000, 
0.12667687767119895, 0.3359880970276651, 1.0264151184918207, 4442188000000, 
-0.14331269646329006, 0.25796912928030585, 1.0265210551672843, 4442193000000, 
-0.23029248045025322, 0.15538564403084984, 1.0260971633560163, 4442198000000, 
0.16084296102554366, 0.35591521352120953, 1.0257662074469285, 4442203000000, 
-0.19510555488898312, 0.25170365604831746, 1.025263073456859, 4442208000000, 
-0.21711085680994643, 0.14343345986485254, 1.0257409636288324, 4442213000000, 
0.1670302875152612, 0.3457832802700554, 1.0255816471044599, 4442218000000, 
-0.13779074002301225, 0.20026458997367522, 1.0252788289888886, 4442223000000, 
-0.1603987571379512, 0.19788699079146943, 1.0252580844898904, 4442228000000, 
0.06279269191264826, 0.3290047981458407, 1.0257249778145012, 4442233000000, 
-0.11835382549244533, 0.23614129163557282, 1.025868087993361, 4442238000000, 
-0.07835350370402604, 0.19171907729286217, 1.0266780038391772, 4442243000000, 
0.03927384608804258, 0.3529078173034207, 1.0267441136747983, 4442248000000, 
-0.10680182443547032, 0.20803387412049668, 1.0268839166646462, 4442253000000, 
-0.10424284241980002, 0.17972312842288884, 1.0278919402988587, 4442258000000, 
0.0040905856457574535, 0.3419853956623321, 1.0285139993207797, 4442263000000, 
-0.09227148441994322, 0.2066467504650892, 1.0288258496876677, 4442268000000, 
-0.2665704434225122, 0.21921251009635234, 1.0301985515474958, 4442273000000, 
-0.054280299578812495, 0.1518439925410819, 1.0326950481795931, 4442278000000, 
-0.0010637830086459308, 0.33991852210882195, 1.0350747758585206, 4442283000000, 
-0.10265657683476016, 0.24295111202363623, 1.0372720700590488, 4442288000000, 
-0.06325763908787696, 0.16042815380154796, 1.0411342193036388, 4442293000000, 
-0.039663623541763934, 0.39760426355436307, 1.0429108559153848, 4442298000000, 
-0.10894882507510943, 0.25948106799991333, 1.0455377414608111, 4442303000000, 
-0.03619561783570219, 0.16455994504122176, 1.0465438378069203, 4442308000000, 
0.04988669165921994, 0.28437158092546744, 1.0478617888319481, 4442313000000, 
-0.15371957712393566, 0.297362828676437, 1.0484128897043834, 4442318000000, 
-0.026864516963936363, 0.20308727027524953, 1.0488494200226632, 4442323000000, 
0.06628831597298022, 0.26550487264087436, 1.048102026834972, 4442328000000, 
-0.20505031430025777, 0.3239780322955539, 1.047770003261328, 4442333000000, 
0.0281056156190747, 0.1339035868303545, 1.0479640846742126, 4442338000000, 
0.02467499942170496, 0.37843380159908585, 1.0470011578065503, 4442343000000, 
-0.20322202117293828, 0.24945867050444434, 1.0464538070982699, 4442348000000, 
0.020040014151478415, 0.16089220823691697, 1.0464169235251455, 4442353000000, 
-0.09472172294150635, 0.3086045365877302, 1.0453807713553114, 4442358000000, 
-0.11676306799369823, 0.2911869486179667, 1.0447287196039736, 4442363000000, 
-0.018849019375267867, 0.1816821269462496, 1.044295982977678, 4442368000000, 
-0.07495857657647266, 0.33678993781394323, 1.0432222629103405, 4442373000000, 
-0.09416412033308143, 0.30493074598580866, 1.0437547391951574, 4442378000000, 
-0.030039530918101104, 0.1927516331822599, 1.0432428736903012, 4442383000000, 
-0.09577512623219736, 0.31809430671692907, 1.0427039437260959, 4442388000000, 
-0.06771112964295012, 0.32611765134610626, 1.0430879954451704, 4442393000000, 
-0.0007213750462867971, 0.16999300048698995, 1.0434121154278329, 4442398000000, 
-0.08984378085592434, 0.31106361201437227, 1.0434326227467678, 4442403000000, 
-0.10884556452899444, 0.33002629168906955, 1.0436696073840046, 4442408000000, 
0.018260231138259603, 0.2015812774364628, 1.0441008155014198, 4442413000000, 
0.04527725120241906, 0.34592588891415554, 1.0442160284118047, 4442418000000, 
-0.2458701512613353, 0.21988466191616107, 1.0443067478839165, 4442423000000, 
0.021831820135732614, 0.24880371586140682, 1.045050623822126, 4442428000000, 
0.0344115180781695, 0.3027509572285388, 1.045009977170011, 4442433000000, 
-0.32032290321631157, 0.25487691282151376, 1.0447170473754723, 4442438000000, 
-0.01830206917251071, 0.3033968726603693, 1.0443629187946015, 4442443000000, 
0.12386171420744028, 0.2928792338222436, 1.0437957246936014, 4442448000000, 
-0.1602614855337167, 0.23489337752870218, 1.0432194926485072, 4442453000000, 
0.05315718769944488, 0.2841340525739776, 1.041327148017694, 4442458000000, 
0.05257635875637506, 0.3053366849708339, 1.0390858436708175, 4442463000000, 
-0.23880556475357403, 0.1935346094336729, 1.0366434307610537, 4442468000000, 
0.19363063142009385, 0.22472578542328567, 1.0339949206199073, 4442473000000, 
-0.030574660377835468, 0.34139587989569925, 1.0300850619472202, 4442478000000, 
-0.13951829238012592, 0.1620987507294353, 1.0269349246400319, 4442483000000, 
0.06276826645198999, 0.2345578689105881, 1.0234078114905176, 4442488000000, 
-0.15969187484883532, 0.3411287186466183, 1.0201591317929726, 4442493000000, 
-0.17598386086056045, 0.1852971797317793, 1.01809612440676, 4442498000000, 
0.15595875835024803, 0.19791461687275033, 1.0151440017542002, 4442503000000, 
-0.023254495087218052, 0.3310708974472403, 1.0119192282524285, 4442508000000, 
-0.15706985694319475, 0.18888425593086336, 1.0101039636841898, 4442513000000, 
0.06463867369104884, 0.20547771299322146, 1.0082224283390822, 4442518000000, 
-0.18364552773648238, 0.3791660257463522, 1.005846567624329, 4442523000000, 
0.03964034064316301, 0.16686256289228504, 1.00465994498755, 4442528000000, 
0.03720140275569597, 0.2453696071345137, 1.0028202737701688, 4442533000000, 
-0.04064632899566123, 0.2217576653101521, 1.0015779181779345, 4442538000000, 
-0.05791410478263309, 0.2536346306421753, 0.9998196845086377, 4442543000000, 
0.06202495234253856, 0.3333129850273052, 0.9983624687619049, 4442548000000, 
-0.14488226977580984, 0.17311666948876597, 0.9971694443394172, 4442553000000, 
-0.08481160474233052, 0.23637105664475122, 0.9959192458488413, 4442558000000, 
0.02983788569333893, 0.2844290318187613, 0.9949873424663148, 4442563000000, 
-0.16697086187357, 0.17355383092705556, 0.9948064488839619, 4442568000000, 
-0.06510929758778036, 0.26107395618059764, 0.9948223612768209, 4442573000000, 
-0.05976127184780372, 0.2765411485365638, 0.9944980759206118, 4442578000000, 
-0.055917357115890784, 0.2331222437301988, 0.9956269220673548, 4442583000000, 
0.01096803436389402, 0.3056429114974319, 0.9965740560435156, 4442588000000, 
-0.11326211142755595, 0.1970957099888111, 0.9970765725987881, 4442593000000, 
-0.04353388542126938, 0.21970417056911942, 0.9983041616293596, 4442598000000, 
0.017386452145213737, 0.28329468501992466, 0.9989604450524804, 4442603000000, 
-0.14472186064879836, 0.20631083429749691, 1.0000894691437332, 4442608000000, 
-0.036798176573023145, 0.26128768212935294, 1.0006355994298743, 4442613000000, 
0.019394312576312994, 0.29136485202358886, 1.0014765135568318, 4442618000000, 
-0.14357131209516025, 0.2037189091702622, 1.0019787220561822, 4442623000000, 
-0.06767981508087274, 0.2849267317737705, 1.0025506563698248, 4442628000000, 
0.053209657495717225, 0.2760667678379494, 1.0027753593729651, 4442633000000, 
-0.1566178340347387, 0.20619813094441763, 1.0023430516107077, 4442638000000, 
-0.04134207396123961, 0.2592562650746388, 1.002084538872639, 4442643000000, 
0.06541753133445517, 0.3137980856459939, 1.0014129209671765, 4442648000000, 
-0.1514220024667831, 0.1988208120318402, 1.0011070558415045, 4442653000000, 
-0.05766526675605172, 0.22811454662578992, 1.0003471192708937, 4442658000000, 
0.02354562156992534, 0.29776576151957, 0.9999905895839695, 4442663000000, 
-0.1686413258350915, 0.18259844158635763, 0.9995726279630079, 4442668000000, 
-0.056847797538114565, 0.27810890850476117, 0.9990165445831071, 4442673000000, 
-0.04646287753220729, 0.2541363603757766, 0.9984730416332687, 4442678000000, 
-0.0963043662113845, 0.2704733732754192, 0.9980837834567898, 4442683000000, 
-0.029819138196755447, 0.20608676572711704, 0.9984725639613465, 4442688000000, 
-0.02414270960739649, 0.24537971999769548, 0.9985283562197969, 4442693000000, 
-0.038059669163639356, 0.23266666449270432, 0.9987745225337985, 4442698000000, 
-0.12900321658305455, 0.2726953820485539, 0.9986729626553996, 4442703000000, 
-0.010788517091652978, 0.19453895238871652, 0.999495636890223, 4442708000000, 
-0.06060141748368428, 0.23429583080904584, 1.0005880516849701, 4442713000000, 
-0.04946645482152044, 0.24494645087451247, 1.000576608644603, 4442718000000, 
-0.02348858231334871, 0.2442097220940168, 1.0010097735464134, 4442723000000, 
-0.05389893940268596, 0.2466942529904414, 1.001384603955864, 4442728000000, 
-0.06120097201625896, 0.24600322078923323, 1.00167407850498, 4442733000000, 
-0.03665068707619182, 0.25311792576590364, 1.0016381239660266, 4442738000000, 
0.06604278665408221, 0.28014540719591224, 1.0015152184391871, 4442743000000, 
-0.15532329177123938, 0.23079264263868352, 1.001257652264584, 4442748000000, 
-0.03358594738662551, 0.23606184183556614, 1.0006402635463436, 4442753000000, 
-0.05272605362645973, 0.23920413861689696, 1.0004904556362209, 4442758000000, 
-0.028323247527800355, 0.22464529571338474, 0.9993660811879043, 4442763000000, 
-0.07370394098251619, 0.2541266764716639, 0.9993674775812916, 4442768000000, 
-0.0453788497046305, 0.26489869433562035, 0.9989758214240506, 4442773000000, 
0.027071107019656926, 0.2376685842696133, 0.9987114790074106, 4442778000000, 
-0.16679959865507177, 0.2251015740245229, 0.9986007774587151, 4442783000000, 
-0.04504156697564114, 0.25128571866456034, 0.9983658027923175, 4442788000000, 
0.043410349527325046, 0.2662001313782689, 0.998515322750974, 4442793000000, 
-0.14687845939123, 0.22394103729189846, 0.9979305887551806, 4442798000000, 
-0.048165802141678135, 0.25704025236730743, 0.9984492686311766, 4442803000000, 
-0.03534948635361658, 0.24801580774860005, 0.9987534858928295, 4442808000000, 
-0.06574368729576391, 0.2550320078512609, 0.9988608423220114, 4442813000000, 
-0.08051379083006965, 0.23049661795397822, 0.9994100508856198, 4442818000000, 
-0.07424739650034777, 0.24468004213789032, 0.9993984625899108, 4442823000000, 
0.054420862118463295, 0.24448223693169854, 0.9994513270746936, 4442828000000, 
-0.20970871847510789, 0.18157179419908717, 0.9997791430553836, 4442833000000, 
-0.02620653682117542, 0.25419236887263363, 1.0002893086725244, 4442838000000, 
0.06892432372665007, 0.2866046198035806, 0.9999517109390063, 4442843000000, 
-0.16990905119100458, 0.21726790046717342, 1.0002354153193118, 4442848000000, 
-0.04803250991834617, 0.2607038066228209, 1.0000326965380846, 4442853000000, 
-0.03296586151652514, 0.23573973535044462, 1.0000603937665011, 4442858000000, 
-0.07526321971365735, 0.24445916946491647, 1.000027070893725, 4442863000000, 
-0.025245409804943372, 0.24911319834110837, 0.9999078403834764, 4442868000000, 
-0.04221454568949152, 0.24335514165292788, 0.9998322474066509, 4442873000000, 
-0.026516656202366838, 0.2693514147516662, 0.9995244090507784, 4442878000000, 
-0.05124243182477704, 0.2504637985142056, 0.9996211166425378, 4442883000000, 
0.044987364530769534, 0.28688066326211437, 0.9996614369833717, 4442888000000, 
-0.1530201203779133, 0.2258182382347698, 0.9993087785589897, 4442893000000, 
-0.04727699691325815, 0.1983423647181994, 0.9992593750588775, 4442898000000, 
0.06663714586061908, 0.2525095848669912, 0.9990986785286287, 4442903000000, 
-0.14007365577621966, 0.22624922409717108, 0.9985534050300052, 4442908000000, 
-0.05351619303858496, 0.2474865812009436, 0.9989455536163568, 4442913000000, 
0.030625061654991355, 0.24714538117442897, 0.9991769727749782, 4442918000000, 
-0.12272573288837299, 0.22637874343171951, 0.998960303543137, 4442923000000, 
-0.08280516358078426, 0.227844057278231, 0.9988008800668986, 4442928000000, 
-0.04911293880902309, 0.24621102285016921, 0.9991392615762021, 4442933000000, 
-0.03497255397478909, 0.24119997027362222, 0.9991343325501827, 4442938000000, 
-0.08665981469395849, 0.2817590332019131, 0.9989751836715323, 4442943000000, 
-0.019100548851109365, 0.2516462030886307, 0.9990432683255841, 4442948000000, 
0.04342606916347187, 0.22239715316595332, 0.9994079919117017, 4442953000000, 
-0.19460926601653022, 0.25675050159006213, 0.9998185893448249, 4442958000000, 
-0.06933572219575065, 0.24680025514855977, 0.9998786384799515, 4442963000000, 
0.04012777417814381, 0.26573707951087255, 0.9991929297180386, 4442968000000, 
-0.1843670458818687, 0.23688061114005574, 0.9996698453586341, 4442973000000, 
-0.055003677987159855, 0.24374130241529798, 0.9994790654698104, 4442978000000, 
-0.09937216863196967, 0.26762322812506867, 0.9996889729184871, 4442983000000, 
-0.034086821670746836, 0.24206709334482465, 0.9997037984138489, 4442988000000, 
0.039889436314659917, 0.25782207074512503, 0.9995714964247503, 4442993000000, 
-0.15688650884857971, 0.24739235632819187, 0.9994654071759611, 4442998000000, 
-0.0743495939856385, 0.24302289988217052, 0.9991185101400384, 4443003000000, 
-0.07114096407090079, 0.23674844637233627, 0.9993498342943153, 4443008000000, 
-0.04016744502880626, 0.2620991555668761, 0.9993085849347207, 4443013000000, 
-0.022660424675538596, 0.2742429829194671, 0.9994558933267118, 4443018000000, 
0.01110881090768093, 0.2334616446787987, 0.9992590037660759, 4443023000000, 
-0.11116094367768023, 0.2614211344967371, 0.9990754552409973, 4443028000000, 
-0.01621961425696891, 0.23205315146240646, 0.9987861473012839, 4443033000000, 
-0.02982774580582101, 0.22080901227381008, 0.999389036054147, 4443038000000, 
-0.052777229615595465, 0.24302750704203024, 0.9989178739847329, 4443043000000, 
-0.04629012526219171, 0.2575698137844587, 0.9990251317992329, 4443048000000, 
-0.057700946332308094, 0.25432335934974887, 0.9993340882007752, 4443053000000, 
-0.10610530563831577, 0.19018996295401133, 0.9994466486215882, 4443058000000, 
-0.005733619763024965, 0.2674732489780727, 0.9994020932920646, 4443063000000, 
-0.05342622755052276, 0.27825458184432816, 1.0000667517439867, 4443068000000, 
0.016838359760245933, 0.20911753858188645, 1.000283348965158, 4443073000000, 
-0.15571566820402774, 0.2612726533792805, 1.0007188261784385, 4443078000000, 
-0.02554630167999291, 0.25457590726632323, 1.0013995880705941, 4443083000000, 
-0.0484827505293639, 0.24533903019164058, 1.0016829616063665, 4443088000000, 
-0.16511770681974186, 0.1994800513383957, 1.0025093766294104, 4443093000000, 
0.007265346023623274, 0.2741166659032508, 1.0030338796813962, 4443098000000, 
-0.0498743485219084, 0.24164824779909802, 1.0034004880111675, 4443103000000, 
0.074742527050635, 0.21169738913324765, 1.003319155323039, 4443108000000, 
-0.19779528223896478, 0.2795658988893499, 1.0030120216267155, 4443113000000, 
-0.022992735896489598, 0.2523502271660572, 1.0027385509850641, 4443118000000, 
0.01706065685810925, 0.23161663476710218, 1.0018921427762102, 4443123000000, 
-0.16665179346616713, 0.2590998536211868, 1.0012854767892974, 4443128000000, 
-0.06032462031875181, 0.2591316554307786, 1.000469412678214, 4443133000000, 
0.040412430931798575, 0.20066433708889397, 0.9997625519899869, 4443138000000, 
-0.1657505183456507, 0.2615947481093407, 0.9988034710952515, 4443143000000, 
-0.055477352451372856, 0.25452938121089874, 0.9982367720442414, 4443148000000, 
0.0678451436158799, 0.2517366592175213, 0.9978424520180872, 4443153000000, 
-0.1676441157530809, 0.26926563396629755, 0.9973537083380519, 4443158000000, 
-0.06140730816401158, 0.25380153797720595, 0.9971709458689334, 4443163000000, 
-0.0870523223919066, 0.24695883603549992, 0.997058136356834, 4443168000000, 
-0.08978504318614804, 0.2531163679414669, 0.9973874760687228, 4443173000000, 
0.05540268623332307, 0.2312208506406217, 0.9981910906899797, 4443178000000, 
-0.19335100769934052, 0.21176740619761297, 0.9975924428302393, 4443183000000, 
-0.041117195168421945, 0.22073546960850957, 0.9981962874037771, 4443188000000, 
0.035744594195009166, 0.2260950139547934, 0.9985383940778497, 4443193000000, 
-0.1837846231752247, 0.28380643911417885, 0.9989384784485992, 4443198000000, 
-0.045055867847841415, 0.2765402299414163, 0.9992990910809557, 4443203000000, 
0.03676925542564808, 0.22382044926044428, 1.0001440075654195, 4443208000000, 
-0.16894889885061154, 0.27618128426825883, 1.0004583932313404, 4443213000000, 
-0.06938437428238983, 0.24622113996123285, 1.0002996681601555, 4443218000000, 
0.08413937237596383, 0.2161967105319053, 1.0005070349894334, 4443223000000, 
-0.19060019204015433, 0.31948666554007443, 1.0007718248408635, 4443228000000, 
-0.05026775489906375, 0.2296505724915319, 1.0005678160280216, 4443233000000, 
0.0717003894314542, 0.2275983312808381, 1.0005180770164666, 4443238000000, 
-0.16862095186261034, 0.31476091709208476, 1.0003642500189371, 4443243000000, 
-0.07556981049534955, 0.2219655954615587, 1.0002554736267504, 4443248000000, 
0.0821754241242702, 0.18667282367466462, 0.9996864903704266, 4443253000000, 
-0.19707798916964497, 0.2891080202870367, 0.9994170610694079, 4443258000000, 
-0.0689214628758057, 0.2295167788120805, 0.999496534658122, 4443263000000, 
0.07449265369559738, 0.19090710154246637, 0.9989115225948964, 4443268000000, 
-0.20889738190319798, 0.29052424568623053, 0.9989963968850644, 4443273000000, 
-0.04185186776387382, 0.25563246096556497, 0.9989403577511973, 4443278000000, 
0.07255087958106744, 0.2311784466961439, 0.9985868085992361, 4443283000000, 
-0.19001065909339848, 0.2928107933728589, 0.9989428259488294, 4443288000000, 
-0.02529749650205674, 0.24478427973898745, 0.998617497588445, 4443293000000, 
0.07319837461782117, 0.19081939322711422, 0.9981773703326376, 4443298000000, 
-0.1756070068763604, 0.31720436661930895, 0.9987190053379033, 4443303000000, 
-0.057101057531709715, 0.24206459337329667, 0.9987533356203955, 4443308000000, 
-0.042465554152555, 0.24566581444988836, 0.9988317059154918, 4443313000000, 
-0.0812591195916729, 0.24868577514684756, 0.9990753872288641, 4443318000000, 
-0.041460437207942805, 0.22721733479995335, 0.9990704523066133, 4443323000000, 
0.04925517920874976, 0.16773334825718234, 0.9994250022344384, 4443328000000, 
-0.1843769861347547, 0.30118218043017014, 0.9999918002382893, 4443333000000, 
-0.03570314514872648, 0.24049629455098825, 0.9996478606848234, 4443338000000, 
0.06609087880748565, 0.13721074524227292, 1.0000124789844178, 4443343000000, 
-0.19805014230574422, 0.34262726047634495, 0.9996837377136354, 4443348000000, 
-0.06023551994535723, 0.23223290472033237, 0.9997549535221429, 4443353000000, 
-0.05250689857243665, 0.19598493600622688, 0.9996767607644503, 4443358000000, 
-0.03891293458306144, 0.2513202796906016, 0.9995436564913667, 4443363000000, 
-0.060391654004599706, 0.22308632165074388, 0.9998302404953384, 4443368000000, 
-0.03702765241681535, 0.2302408335727591, 0.9999179338707068, 4443373000000, 
0.08101128267769696, 0.1321713927875979, 0.999972315626293, 4443378000000, 
-0.21349625781842702, 0.309215538638356, 1.0000480564762257, 4443383000000, 
-0.0432059643724435, 0.22101005315567385, 0.9995882187280155, 4443388000000, 
-0.04854659677563163, 0.2252371452616717, 0.9998260580367508, 4443393000000, 
-0.07691749639825113, 0.2719321542904375, 0.9998985466619816, 4443398000000, 
-0.04183062338160168, 0.2376278793798403, 1.0001345819276084, 4443403000000, 
-0.08465834306002454, 0.2532564814723188, 0.9996432750157155, 4443408000000, 
-0.03288718960914483, 0.2809168434928759, 1.0000033947135898, 4443413000000, 
-0.05445060963497191, 0.2334055103149824, 1.0001156304397232, 4443418000000, 
-0.05553416047395891, 0.22439400320331584, 0.9998172606703973, 4443423000000, 
-0.04622499108628396, 0.24645087618762404, 1.0000686647242545, 4443428000000, 
-0.04116346279099289, 0.20826174955124302, 1.0001989279765064, 4443433000000, 
-0.06960174181773054, 0.23545823314599956, 1.0000896862821722, 4443438000000, 
-0.041688146620992225, 0.2301041979076269, 1.0002853880174574, 4443443000000, 
-0.027430892189066025, 0.27123205970013736, 0.9998203511065225, 4443448000000, 
-0.04331003263720818, 0.24024664794472064, 1.0001725248644215, 4443453000000, 
-0.05122979824334001, 0.22734798355235833, 1.0001144670455229, 4443458000000, 
-0.033833196304799314, 0.22385493868459463, 0.9998910602419867, 4443463000000, 
-0.08768834521402044, 0.2514909003230257, 1.0001275226572803, 4443468000000, 
-0.033966888313792395, 0.2255590094750854, 0.9998602627804819, 4443473000000, 
-0.06367695729118591, 0.248442787410975, 1.0000211520055404, 4443478000000, 
-0.08425380538032896, 0.21486887932811752, 0.9996809545314013, 4443483000000, 
-0.03386635174491517, 0.2654179389654648, 0.9997611722563022, 4443488000000, 
0.005574471105360508, 0.31952840640851665, 0.9991079656141132, 4443493000000, 
-0.08160939366415808, 0.16169466602950194, 0.9998750428111024, 4443498000000, 
-0.05581554285437708, 0.24572900617457313, 0.9998776224216762, 4443503000000, 
-0.02992537882363042, 0.28629648031196375, 0.9995598880057098, 4443508000000, 
-0.04787319434390141, 0.2685855205825608, 0.9996302928610903, 4443513000000, 
-0.029641074337531062, 0.33366539968754905, 0.9999324433486185, 4443518000000, 
-0.07981392364351207, 0.15978416622804878, 0.9997252540254122, 4443523000000, 
-0.06552509266555008, 0.24464111053379123, 0.9997224048426053, 4443528000000, 
-0.02347794620868352, 0.333956953965065, 0.9996265317217818, 4443533000000, 
-0.11105992011531923, 0.10203726515410712, 0.999651700739081, 4443538000000, 
-0.03636293534900811, 0.2800618451215521, 1.000447369616373, 4443543000000, 
0.010489815763130256, 0.3517403660326093, 0.9996844301210515, 4443548000000, 
-0.10013286751502067, 0.10671405062684586, 0.9999058624941404, 4443553000000, 
-0.061968209857922785, 0.270728236978714, 0.9999236441935851, 4443558000000, 
-0.012597269065094362, 0.3800027161017879, 0.9996362633040552, 4443563000000, 
-0.07767563893248901, 0.11279667159771592, 1.0001201724924393, 4443568000000, 
-0.07348382730712424, 0.23889140307414647, 1.0000110510815428, 4443573000000, 
-0.08696662634830643, 0.24310068148918756, 0.9997244716753488, 4443578000000, 
-0.06354653765018263, 0.20405466431372718, 0.9995803180081511, 4443583000000, 
-0.05554156318725923, 0.22912315587526286, 1.0001115959907978, 4443588000000, 
-0.05676766985065526, 0.21163353374034982, 1.0001115892854227, 4443593000000, 
-0.058080989034847555, 0.2414172037652, 0.9995779281489204, 4443598000000, 
-0.03476922034300939, 0.41476397163295536, 0.9998258412138914, 4443603000000, 
-0.09138207277260225, 0.07012713814064109, 0.9997963754444136, 4443608000000, 
-0.06796073876241197, 0.2554822048977667, 0.9999425249547059, 4443613000000, 
-0.007898572465050381, 0.4240378794448881, 0.9998172160533375, 4443618000000, 
-0.13030710284731603, -0.005895577333570537, 0.9993708321309636, 4443623000000, 
-0.016425654719597636, 0.41744476023954985, 0.99973229956317, 4443628000000, 
-0.09227299202318923, 0.037824415501953, 0.9995543513869698, 4443633000000, 
-0.061011653536590875, 0.2418345937694465, 0.9998520986841759, 4443638000000, 
-0.01644337617585075, 0.3965603058328701, 0.999381743565192, 4443643000000, 
-0.10072317731478639, 0.054098395621403825, 1.000013428268761, 4443648000000, 
-0.07043013422339986, 0.29192675258271533, 0.9997261688357405, 4443653000000, 
-0.01442704984401885, 0.3912504956184857, 0.9994808904135726, 4443658000000, 
-0.09789006315773673, 0.08435656476654324, 0.9995750424552908, 4443663000000, 
-0.06833769385271729, 0.2902683019593124, 0.9998925771836573, 4443668000000, 
-0.16742930576574447, 0.41111162103251936, 1.0004637830201928, 4443673000000, 
0.02646866907931284, 0.05118916280521528, 1.002160120794818, 4443678000000, 
-0.006068072322898905, 0.25498145158909785, 1.0034717573868255, 4443683000000, 
-0.1743806864480482, 0.4659197916626769, 1.0048001734498606, 4443688000000, 
-0.0012685966306298195, 0.07691492760809593, 1.007849915110026, 4443693000000, 
-0.08728437655937178, 0.2472825452953862, 1.0102790826883188, 4443698000000, 
-0.2858930409673145, 0.4760432962901349, 1.0135157274613074, 4443703000000, 
0.09883353533689912, 0.032389479776725225, 1.0170325061589345, 4443708000000, 
-0.030514092473978762, 0.22638424385133515, 1.019998875237122, 4443713000000, 
-0.2513762107827987, 0.47752311895436855, 1.0232423279240823, 4443718000000, 
0.03479865131417811, 0.059166733515728404, 1.0258819181959966, 4443723000000, 
0.10799552924125064, 0.23123811560406718, 1.0280096196649982, 4443728000000, 
-0.1417554500082443, 0.32220404058776725, 1.028820423626594, 4443733000000, 
-0.16345451117931506, 0.41680068629384215, 1.0298820409112477, 4443738000000, 
0.10193911497570733, 0.07148220857762114, 1.0301434359717272, 4443743000000, 
-0.05479645400031921, 0.2281630824543, 1.0292115762927394, 4443748000000, 
-0.17634938928829588, 0.3286210495833024, 1.0280755348489377, 4443753000000, 
-0.1342524812126145, 0.18724649467190646, 1.0283276510999917, 4443758000000, 
0.06321145015029259, 0.1944755795347703, 1.0280659003461223, 4443763000000, 
-0.16901229866319206, 0.3268832354812941, 1.0278018314242858, 4443768000000, 
-0.024493199675749908, 0.39575084732862137, 1.0281438010637514, 4443773000000, 
-0.027394232248100676, 0.0037364242380507687, 1.02903979184984, 4443778000000, 
-0.10342095891792949, 0.26871794856324915, 1.0283615770278625, 4443783000000, 
-0.055489228427568496, 0.4485518393834263, 1.028783502668063, 4443788000000, 
0.012042936203814327, 0.12535031628985344, 1.0293070191534275, 4443793000000, 
-0.19082438900313517, 0.227967745655103, 1.0291207126005972, 4443798000000, 
-0.0751672553553197, 0.3392446368936481, 1.0297562773282147, 4443803000000, 
0.0595563390078254, 0.22688926848958033, 1.0304222336490252, 4443808000000, 
0.09736823078917559, 0.20121960428362942, 1.0299511447291838, 4443813000000, 
-0.22542704701501742, 0.2954020731255127, 1.0289390643268537, 4443818000000, 
-0.1282047837207406, 0.23319563120746642, 1.0282494404106377, 4443823000000, 
0.13058145455616801, 0.21282028441150228, 1.0270897589833503, 4443828000000, 
-0.1765402963941631, 0.3033689906507677, 1.025689083313119, 4443833000000, 
-0.10681943796293693, 0.2253667109951213, 1.0246572446007738, 4443838000000, 
0.14490853217879285, 0.19234478870301608, 1.0232120996256118, 4443843000000, 
-0.07925054025936014, 0.39129570744489944, 1.0210762823444612, 4443848000000, 
-0.14107497676909678, 0.13079557049189838, 1.0197233958952294, 4443853000000, 
0.07199924819176125, 0.2437670949292967, 1.0181163985340929, 4443858000000, 
-0.11479266856069903, 0.4118313817442636, 1.0159780884740086, 4443863000000, 
-0.05670923914662943, 0.11828049700668763, 1.0150408145489462, 4443868000000, 
0.09290780100626297, 0.3425195323602352, 1.013014615868662, 4443873000000, 
-0.17961054669204704, 0.15388653397675575, 1.0116081853399796, 4443878000000, 
0.009356619870220798, 0.24722947545994628, 1.0096917992292815, 4443883000000, 
-0.09095790782898727, 0.33253948678095907, 1.007066459496218, 4443888000000, 
-0.04671808020008411, 0.15657858349944836, 1.0056754875810823, 4443893000000, 
0.03938596529801717, 0.35171296179338873, 1.0034568544941642, 4443898000000, 
-0.11043138944685792, 0.15465287719402926, 1.0014460962253688, 4443903000000, 
-0.050529790070253856, 0.26617472747661025, 0.9997606483005778, 4443908000000, 
0.02566021415060196, 0.3516734095851003, 0.997245461887445, 4443913000000, 
-0.11544350338700965, 0.1699782464735056, 0.9958286345678944, 4443918000000, 
-0.07231392353206177, 0.25369357779972146, 0.9946976598819454, 4443923000000, 
0.02780943568182634, 0.31360840241676013, 0.99383463842266, 4443928000000, 
-0.14520291330423618, 0.16045961164573816, 0.9929302296748846, 4443933000000, 
-0.03746141206457203, 0.2690556891684329, 0.9934894248610524, 4443938000000, 
0.025624133620087648, 0.33404025744699634, 0.9938967734378612, 4443943000000, 
-0.14024993989569298, 0.15407464454349343, 0.9950206553886005, 4443948000000, 
0.021064602449420378, 0.3478109920974517, 0.9963189705789169, 4443953000000, 
-0.12376179252787131, 0.14774465245774757, 0.9970616650956572, 4443958000000, 
-0.06434041979125442, 0.27231350939848803, 0.9984279608824427, 4443963000000, 
0.04205989022931522, 0.33191844960120653, 0.9997960200025988, 4443968000000, 
-0.13270919714316745, 0.149320205668702, 1.0008212847368145, 4443973000000, 
0.009356186794168608, 0.33086751267306913, 1.0022675909476453, 4443978000000, 
-0.12978747466618507, 0.21364705525305605, 1.0025310056562555, 4443983000000, 
-0.05224277540208445, 0.26330213896833066, 1.0035814391340858, 4443988000000, 
0.07553125286313842, 0.34201375519089877, 1.0033245075801904, 4443993000000, 
-0.15845415867523777, 0.14335600748996813, 1.0032160493690372, 4443998000000, 
-0.046935142722200146, 0.2792210392885729, 1.003180869584165, 4444003000000, 
0.016420866862406465, 0.32531218599762074, 1.0028250594504782, 4444008000000, 
-0.16645171849730583, 0.17498271639905585, 1.002032942699755, 4444013000000, 
-0.08419576737766707, 0.23378101311910932, 1.0015586648496908, 4444018000000, 
-0.1494566626981628, 0.33115060293795845, 1.0011350609253387, 4444023000000, 
-0.04393133142413228, 0.18902685325523794, 1.001316382193861, 4444028000000, 
0.014731072233889173, 0.24592497414321818, 1.0021439026887744, 4444033000000, 
-0.07365222251847794, 0.3496897987746938, 1.0021931176966608, 4444038000000, 
-0.09922217143891668, 0.17259705031172537, 1.0034554197485408, 4444043000000, 
0.03276121846339577, 0.2509049451479135, 1.0050730998657322, 4444048000000, 
-0.153450903492519, 0.3452584622739254, 1.0059518568360672, 4444053000000, 
-0.12926863546873926, 0.19893883924616296, 1.0093057572446449, 4444058000000, 
0.060400961004286706, 0.2506429153252299, 1.0111967095042216, 4444063000000, 
-0.07612823936139014, 0.20112648679311224, 1.0129394068951758, 4444068000000, 
-0.1985325487007525, 0.3902487957823089, 1.0151299529813305, 4444073000000, 
0.08143954451338604, 0.09179404542004693, 1.017440257605593, 4444078000000, 
0.01923121535714671, 0.2172594035926111, 1.0192081270007451, 4444083000000, 
-0.3301520718607039, 0.33253881975163246, 1.0207034670688426, 4444088000000, 
-0.16452819335218788, 0.2979091849021301, 1.0234195536913513, 4444093000000, 
0.029980606350704323, 0.18116395284528625, 1.0266620817474448, 4444098000000, 
0.19683292603724617, 0.2350002192277317, 1.0288104087622154, 4444103000000, 
0.02975471474816983, 0.23722857252113672, 1.0287301234366382, 4444108000000, 
-0.2913031990307726, 0.33636987729959505, 1.0287546150053115, 4444113000000, 
-0.12465079380175978, 0.26458146637594593, 1.0295893528216091, 4444118000000, 
-0.13346733120063742, 0.24912967983372383, 1.0311348005850327, 4444123000000, 
0.0625169282698137, 0.17636373276611403, 1.0326986799991251, 4444128000000, 
0.13578889021931287, 0.22177912626636168, 1.0328198078663358, 4444133000000, 
-0.016068039887640162, 0.22773339567549905, 1.0312224890728963, 4444138000000, 
-0.24987467633170096, 0.2901367849573195, 1.0282930252748324, 4444143000000, 
-0.06530752436073788, 0.3478188017530033, 1.0257322159302074, 4444148000000, 
-0.029250047760228638, 0.1421185259244962, 1.024035762074632, 4444153000000, 
0.03592110766326821, 0.22280865462254712, 1.0211813203734403, 4444158000000, 
-0.024163952703935277, 0.2486818973307928, 1.0170520990170129, 4444163000000, 
-0.138416006409148, 0.23787492033116062, 1.012607674051769, 4444168000000, 
0.024157257768100866, 0.22622196474589037, 1.0088905337741527, 4444173000000, 
-0.039149804319672854, 0.230694375078506, 1.0029097533123599, 4444178000000, 
-0.06409630369941324, 0.23467909758775365, 0.9979448853344953, 4444183000000, 
-0.028143248188315345, 0.26314567287590396, 0.9938985985479619, 4444188000000, 
-0.044449894800618256, 0.2353113304669707, 0.9904032384027297, 4444193000000, 
-0.07430095089684374, 0.24350438438731759, 0.9876176365095872, 4444198000000, 
-0.03666414618103402, 0.2496240066627375, 0.9862350720416764, 4444203000000, 
0.07845735870092471, 0.3083808721189327, 0.9850996275899806, 4444208000000, 
-0.14127354004264053, 0.1781171429113812, 0.9857094135151232, 4444213000000, 
-0.06172960653110396, 0.24393258361118342, 0.9867296298088332, 4444218000000, 
0.028313027988805826, 0.2794143938166268, 0.9883946546899983, 4444223000000, 
-0.13110177015043575, 0.190147439442677, 0.9907858512744859, 4444228000000, 
-0.04681414798753842, 0.2464766421288049, 0.9942221657740269, 4444233000000, 
0.06228503751688426, 0.3077419852848118, 0.9968367371839175, 4444238000000, 
-0.16512425044505957, 0.2225045912488662, 0.9998031774632532, 4444243000000, 
-0.03917522776238563, 0.2497273784507675, 1.0025810840427063, 4444248000000, 
0.014705106730862897, 0.2562845637550242, 1.0047282649613403, 4444253000000, 
-0.173130453283273, 0.23630772087699145, 1.006534685134166, 4444258000000, 
-0.04026901699482947, 0.2718489857508953, 1.0073930365864998, 4444263000000, 
0.03498958695019566, 0.2668032901667885, 1.0080764417457326, 4444268000000, 
-0.17811889494755478, 0.20543538801390412, 1.0083247604089682, 4444273000000, 
-0.07217944484773967, 0.24104916144826347, 1.0080274316495081, 4444278000000, 
0.009432602461740776, 0.26859673588693805, 1.0064627504551789, 4444283000000, 
-0.1715195982443377, 0.21925977202432795, 1.005061144012566, 4444288000000, 
-0.07955664448444703, 0.3018409584040863, 1.0034677696640577, 4444293000000, 
0.061775191817307215, 0.2952895205178683, 1.0017304763863348, 4444298000000, 
-0.16944490808065232, 0.20938423720789595, 1.0000252770318487, 4444303000000, 
-0.05315696338872573, 0.25506021804155943, 0.9985429790527253, 4444308000000, 
0.06487764955427448, 0.2683016283878577, 0.9968445485141258, 4444313000000, 
-0.1831681823936674, 0.2072582308352921, 0.9952683039323919, 4444318000000, 
-0.010677687848554766, 0.24676344689393576, 0.9949894791339003, 4444323000000, 
0.013257089149344467, 0.28622958492407685, 0.9945147119207047, 4444328000000, 
-0.15056024453718236, 0.22427634415961786, 0.9945474375453033, 4444333000000, 
-0.037937079515938055, 0.2664645374134831, 0.994961426159247, 4444338000000, 
0.03030502597701238, 0.26388037839248474, 0.9953633709897434, 4444343000000, 
-0.16417241964504675, 0.2153342946321839, 0.9962786289946881, 4444348000000, 
-0.04327863860763633, 0.2523983688276156, 0.9972350173415665, 4444353000000, 
0.04511387367716848, 0.27006931683011526, 0.998083654284432, 4444358000000, 
-0.12694048315102363, 0.2364423737597367, 0.9990154584748367, 4444363000000, 
-0.030927867444708945, 0.2721085147517479, 0.9999270631840831, 4444368000000, 
0.03652546213151202, 0.25931151684699016, 1.0013258047514857, 4444373000000, 
-0.18901727184773143, 0.23037979639487105, 1.001676482631756, 4444378000000, 
-0.03650074061749545, 0.25005356967914466, 1.0024016333790464, 4444383000000, 
-0.06950293157579057, 0.25137127115055985, 1.002771189004996, 4444388000000, 
-0.03957193413704836, 0.24410865822670205, 1.002561603422628, 4444393000000, 
-0.076488632060116, 0.2644387649136492, 1.0027145703431446, 4444398000000, 
-0.02465701362255454, 0.2289642638164116, 1.0021323508912348, 4444403000000, 
-0.06308640650825473, 0.2213910513632747, 1.00191773960381, 4444408000000, 
-0.047328471597894155, 0.24612095285910726, 1.000960733616644, 4444413000000, 
-0.08585510948158108, 0.26948088528042746, 1.0008273141804358, 4444418000000, 
0.05593610355150809, 0.22638391655831963, 0.999989808257951, 4444423000000, 
-0.14482424777164346, 0.27258689245049944, 0.999626114828555, 4444428000000, 
-0.018365533104030975, 0.24074347736539436, 0.9991277240704023, 4444433000000, 
-0.09798212747606748, 0.15183554646832556, 0.9988858971905431, 4444438000000, 
-0.2588910123898673, 0.25524519266047785, 1.000139079786054, 4444443000000, 
0.0656825223646241, 0.28101017520607036, 1.0018703563462548, 4444448000000, 
-0.012571772461803948, 0.2536398150331531, 1.003542501050469, 4444453000000, 
-0.10658110382058364, 0.15784025691520442, 1.0049758205563994, 4444458000000, 
-0.3458842784452812, 0.35791343615369836, 1.0076217708957924, 4444463000000, 
-0.2202350625317415, 0.2792525228814665, 1.0123944756573757, 4444468000000, 
-0.1387677396039587, 0.23812788233258536, 1.017084501789803, 4444473000000, 
-0.0976266493839189, 0.2232847009745795, 1.0264459383521056, 4444478000000, 
-0.05593721009663312, 0.22928679480904013, 1.0336084412980626, 4444483000000, 
-0.08444869452205786, 0.25610333582994377, 1.0413530511449816, 4444488000000, 
-0.035429749950437746, 0.25292063253065683, 1.0486219896402176, 4444493000000, 
-0.060307843907447596, 0.272434990443764, 1.0541854482303035, 4444498000000, 
-0.03991655674439036, 0.24749496231459717, 1.0590969364039915, 4444503000000, 
-0.0072626486948902036, 0.26381801288980494, 1.0631813046994254, 4444508000000, 
0.1135235763355754, 0.2512271966477923, 1.0653360851319946, 4444513000000, 
0.18544347518873888, 0.193379740872689, 1.0648986666961762, 4444518000000, 
0.09304414470107528, 0.29390086859180975, 1.0597384260180769, 4444523000000, 
-0.17689584026891692, 0.2449378738969756, 1.0521950937967635, 4444528000000, 
-0.04501378062059415, 0.24134696083356957, 1.0440850553341152, 4444533000000, 
0.07584221812355503, 0.2893215997176517, 1.0344722444509187, 4444538000000, 
-0.12902237584946175, 0.17223452660896996, 1.0237954546225418, 4444543000000, 
-0.06120259404970463, 0.2816482141383433, 1.0139011105691729, 4444548000000, 
0.01868382912929501, 0.28007181594862435, 1.0045072139080704, 4444553000000, 
0.07140127568696568, 0.2479345370402413, 0.9950501661714972, 4444558000000, 
-0.16976057332680375, 0.25568235147829, 0.986555851952515, 4444563000000, 
-0.05961524055018453, 0.23131000113909184, 0.9798787220544201, 4444568000000, 
0.0495243933430252, 0.23693706003474957, 0.9754453382928908, 4444573000000, 
-0.15407397838572504, 0.22956783506557082, 0.9729109891784151, 4444578000000, 
-0.039642169045178595, 0.25254865538201593, 0.9715939814098308, 4444583000000, 
0.06410414780031617, 0.23533107494171435, 0.9730434638921217, 4444588000000, 
-0.15795601668816225, 0.22346191741153493, 0.9749301332577557, 4444593000000, 
0.06722261266463773, 0.23563216095781309, 0.9796690398078427, 4444598000000, 
-0.13379051509662446, 0.22931229032669362, 0.9847709468812756, 4444603000000, 
-0.06903111923967505, 0.23743148212878865, 0.9898750907292078, 4444608000000, 
-0.06748119443622214, 0.26563712143541157, 0.9946881872066473, 4444613000000, 
-0.0568525581554199, 0.30489538132382976, 1.001253658916631, 4444618000000, 
-0.059874917798916925, 0.2419310410566253, 1.0065212445701741, 4444623000000, 
0.057659233218991926, 0.21962228275630744, 1.0108431223887366, 4444628000000, 
-0.13587862001380643, 0.2647803249814624, 1.0135360713079435, 4444633000000, 
-0.042891776128974164, 0.2790342834219802, 1.0156694785235805, 4444638000000, 
0.09857651857592235, 0.22764332116754646, 1.016526024250108, 4444643000000, 
-0.15666767615597335, 0.2539199669902529, 1.0163973002103266, 4444648000000, 
-0.05485798578261397, 0.23917681053412482, 1.015024190813132, 4444653000000, 
0.062088068290085265, 0.24942077320641942, 1.012517005543341, 4444658000000, 
-0.14949389804980814, 0.28279587681035895, 1.0097650232834625, 4444663000000, 
-0.06913027268203763, 0.2610562172978448, 1.006503661425966, 4444668000000, 
0.034990612937672486, 0.2246395362514978, 1.0031771425143283, 4444673000000, 
-0.1511969344981883, 0.27383126687192927, 0.9998143494463538, 4444678000000, 
-0.0421161247012444, 0.25402329528184175, 0.9963614412838646, 4444683000000, 
0.06926574462909843, 0.21882444387656103, 0.9940000555295586, 4444688000000, 
-0.16296861680167374, 0.27461741955267044, 0.99209542090166, 4444693000000, 
-0.03023707241233854, 0.2412411056026602, 0.9910453335431499, 4444698000000, 
-0.046705899088274765, 0.2436917969811941, 0.9896769378897791, 4444703000000, 
-0.06288990456087189, 0.2912916593667074, 0.9899363212214883, 4444708000000, 
0.08761768149337201, 0.21463531751684942, 0.990775151136755, 4444713000000, 
-0.19276359354048672, 0.2536286578807087, 0.9916939287268752, 4444718000000, 
-0.025459880639243537, 0.23055015146333385, 0.9930299372570495, 4444723000000, 
0.06674309053012206, 0.2086394288962363, 0.9954986401282555, 4444728000000, 
-0.17577982154285657, 0.2805469358558803, 0.9974619308057073, 4444733000000, 
-0.052873366480734436, 0.24516280741226887, 0.9996179541003564, 4444738000000, 
-0.047096693014024436, 0.2193858017726552, 1.0012246322098726, 4444743000000, 
-0.1563450285126613, 0.27487515758684256, 1.0036983548684593, 4444748000000, 
-0.0007182567708575553, 0.2578664120384736, 1.0050154913507416, 4444753000000, 
-0.03365457804718695, 0.25706759975836413, 1.0066020073989639, 4444758000000, 
-0.2976223945400658, 0.2184397957640442, 1.0086423813456484, 4444763000000, 
0.11756285724072058, 0.2711547652056066, 1.0108855433448212, 4444768000000, 
-0.008521544487347755, 0.2371312676505576, 1.0120653801871613, 4444773000000, 
-0.3155944932068744, 0.21003230199875605, 1.013106893705251, 4444778000000, 
-0.10190142640561163, 0.2741482437573752, 1.0162677795160002, 4444783000000, 
0.12577983565316095, 0.2838233336867383, 1.0183804581890261, 4444788000000, 
-0.15228661253255057, 0.20498088943887488, 1.019019414320554, 4444793000000, 
-0.2754114597570759, 0.23408545166169506, 1.0211046068222478, 4444798000000, 
-0.15739843508531573, 0.2492836868469231, 1.0234738262138603, 4444803000000, 
0.062101012905577686, 0.19645105973885324, 1.0264853475570161, 4444808000000, 
0.18081571230004523, 0.32232125494411784, 1.0297136987597608, 4444813000000, 
-0.10608651398064892, 0.15858332750723003, 1.0295589377076904, 4444818000000, 
-0.23799350109483886, 0.24723540652819434, 1.0302929766559161, 4444823000000, 
-0.11149325200831856, 0.22461734830218105, 1.0315542114196266, 4444828000000, 
-0.09241151711379475, 0.2627753671057428, 1.033449628007305, 4444833000000, 
0.01478642714713669, 0.23888672302786423, 1.0354625417850836, 4444838000000, 
0.2102116463183957, 0.32292831155323704, 1.0363349899078929, 4444843000000, 
0.05270292709856174, 0.2684099089700059, 1.0344478381645146, 4444848000000, 
-0.2690044081560311, 0.17568238552591137, 1.0314351163510633, 4444853000000, 
-0.1207973768790023, 0.23808380382562724, 1.0292249582772712, 4444858000000, 
-0.07676442580939319, 0.2482861339225694, 1.0280352365936964, 4444863000000, 
0.14945622516486304, 0.3473538249824584, 1.0256421074824948, 4444868000000, 
0.012190158976295218, 0.2528366457697022, 1.0221935292665372, 4444873000000, 
-0.1502662266571325, 0.07567354720601639, 1.017920910886128, 4444878000000, 
-0.05803215196184949, 0.42630200891060965, 1.0142874203066294, 4444883000000, 
0.03270229047351191, 0.31670095465630116, 1.0100921772642033, 4444888000000, 
0.10105942020560771, 0.1670519845102017, 1.0052867571891644, 4444893000000, 
-0.1548980007053657, 0.3525060434991509, 1.000746728920996, 4444898000000, 
-0.08634027017202535, 0.2576353893782357, 0.9969149839204987, 4444903000000, 
0.10281415520433923, 0.1277419962855124, 0.9934796898107187, 4444908000000, 
-0.2183852937028634, 0.37387628416335433, 0.9903859728001347, 4444913000000, 
-0.05368252030843873, 0.21809136569421872, 0.9882931129435755, 4444918000000, 
0.06323539534757888, 0.17491628473505533, 0.9869566519377904, 4444923000000, 
-0.16007032859976536, 0.34303035672482673, 0.9867376090229044, 4444928000000, 
-0.03213776954786127, 0.2616717734079541, 0.9878693652004598, 4444933000000, 
0.08243721938073009, 0.1668237607707853, 0.9888705135124437, 4444938000000, 
-0.17054029293840547, 0.3050355060001302, 0.9911648432517721, 4444943000000, 
-0.018346959818672546, 0.23725239697412617, 0.993848186254906, 4444948000000, 
0.052715824196532826, 0.2078673641700284, 0.9966633850566192, 4444953000000, 
-0.2032824125483142, 0.31548388559500484, 0.9987235011655685, 4444958000000, 
-0.05508996133907525, 0.2411360017679756, 1.0021695861205129, 4444963000000, 
0.04649263421238082, 0.21501090534639283, 1.004321126686454, 4444968000000, 
-0.17058643356988218, 0.2606119029874805, 1.0058082328212088, 4444973000000, 
-0.06152105248179224, 0.2563676937453981, 1.0074684993729277, 4444978000000, 
-0.0463397644540605, 0.24554255653001222, 1.0081422243809586, 4444983000000, 
-0.11492685601027866, 0.23301914222257022, 1.0082826067128818, 4444988000000, 
0.009580434936196716, 0.2558930884287447, 1.0082345610070198, 4444993000000, 
-0.14408756941647158, 0.2282532526270305, 1.0077109874336723, 4444998000000, 
-0.06964522154825173, 0.2531042991960081, 1.005733964147694, 4445003000000, 
0.02090229041756362, 0.25946676567189647, 1.004438875398882, 4445008000000, 
-0.1345264430308065, 0.1864210924838657, 1.0033665416483162, 4445013000000, 
-0.08721485175741028, 0.22109995964771353, 1.0014926260090553, 4445018000000, 
0.011279578926096533, 0.2812327097977389, 0.9996874867131922, 4445023000000, 
-0.13141309479229216, 0.19481743959113995, 0.9986790921530765, 4445028000000, 
-0.01750635303866694, 0.20793027439902473, 0.9974484395769168, 4445033000000, 
0.0007318128086758126, 0.2955250304160495, 0.9966618467763735, 4445038000000, 
-0.11117406106927669, 0.18344572487920166, 0.9958316656427161, 4445043000000, 
-0.06250431992784317, 0.281045203820116, 0.9958545817574984, 4445048000000, 
0.026115903541131174, 0.3552235623407694, 0.9954439846691887, 4445053000000, 
-0.11559669582624059, 0.14532107742904893, 0.996167576771598, 4445058000000, 
-0.019852410289823333, 0.3473000858099826, 0.9970696131219792, 4445063000000, 
-0.09953250406412864, 0.12064143588545183, 0.9972283462830586, 4445068000000, 
-0.04932774663789288, 0.22987183258200986, 0.9987919631555465, 4445073000000, 
0.010788125229248519, 0.35235997400093805, 0.9999678936498249, 4445078000000, 
-0.054450667667431736, 0.1374965783045937, 1.000550658227312, 4445083000000, 
-0.04244068146952483, 0.2754029847838256, 1.0011966656034037, 4445088000000, 
-0.018362479037070348, 0.3591067896855001, 1.0024804489720023, 4445093000000, 
-0.077491367253708, 0.14341055712273104, 1.0027570187286086, 4445098000000, 
-0.034925843647463206, 0.2383099282753159, 1.002972554778673, 4445103000000, 
-0.03222482415914968, 0.363822004658561, 1.0031615925731108, 4445108000000, 
-0.08098583463622562, 0.17896625697508578, 1.00293313508679, 4445113000000, 
-0.04877222396614144, 0.27310921783297426, 1.0031853945148026, 4445118000000, 
-0.0716670413838129, 0.29932813853004203, 1.0025503330298893, 4445123000000, 
-0.04497999069030106, 0.23916217786855645, 1.0018699705448, 4445128000000, 
-0.04949030117145441, 0.25360878134772374, 1.002283669522121, 4445133000000, 
-0.08834809288734656, 0.22562842134580344, 1.0012358574744546, 4445138000000, 
