acc_x, acc_y, angular_z, stamp, 
-0.05399752870008361, -0.011790353542204438, -6.858230538783042e-05, 3293389000000, 
-0.055154109541664637, 0.006263550844970265, 5.599193818233989e-05, 3293394000000, 
-0.042921801306304866, -0.017597016489878388, -6.6726465556312715e-06, 3293399000000, 
-0.04373789529085878, -0.002410098891500492, -0.00013322474725466782, 3293404000000, 
-0.03551868418062989, 0.010708479995307826, -0.00018779732868246944, 3293409000000, 
-0.0500053983441125, -0.016128020177778035, 0.00015921378220587953, 3293414000000, 
-0.06788934387848349, -0.0008673051946918364, 0.00013866186586951294, 3293419000000, 
-0.07213956768955972, -0.00746050877543083, -5.265464715143226e-05, 3293424000000, 
-0.06676180800275958, 0.008160056230658283, 0.00027308629596910883, 3293429000000, 
-0.03765864677886886, 0.002174916611247038, 0.00012771234278222742, 3293434000000, 
-0.06412699259520367, 0.018245783987029918, -1.7564301176497905e-05, 3293439000000, 
-0.0626527196069442, 0.0016622634093344966, -0.00017111213352235998, 3293444000000, 
-0.051153746583936004, -0.017473234119057088, 1.686686126615494e-05, 3293449000000, 
-0.06093512538132787, -0.02749558378258249, 0.00010108201642621956, 3293454000000, 
-0.053139921657, -0.016294372520944695, -2.1447338407392494e-05, 3293459000000, 
-0.04552889506124401, 0.009600019562728337, 5.9050035062783344e-05, 3293464000000, 
-0.05428040717597401, -0.014925299095777346, 0.0002032706790784551, 3293469000000, 
-0.04612770298537376, 0.01801444468444797, 2.3118688350151118e-05, 3293474000000, 
-0.05982968440631582, 0.04692028454266241, 0.00011583303729797063, 3293479000000, 
-0.06384937872762722, -0.010487145197664437, -2.0601693384562913e-05, 3293484000000, 
-0.05786868794086699, 0.016756699260840988, -1.563532545612659e-05, 3293489000000, 
-0.03100452997483193, -0.04745795751166828, -0.0001924659871169882, 3293494000000, 
-0.03228811143610373, 0.0024389023067184737, 5.393750811529569e-05, 3293499000000, 
-0.06228536837697529, -0.02775919555884838, -0.00043202269109729935, 3293504000000, 
-0.052250457977215364, 0.01852797460888535, -0.0002000972081485161, 3293509000000, 
-0.0713335896717625, -0.021791363722718282, -1.954593923413954e-05, 3293514000000, 
7.00211354946555, -0.013778308551192001, 0.0016588039822893767, 3293519000000, 
-0.1347819082469296, 0.006674408982902289, 0.003235293210291217, 3293524000000, 
-0.12194423092420793, -0.01682967066572595, 0.005956448151535713, 3293529000000, 
0.01670233967913673, 0.03414276707784448, 0.008905610676453225, 3293534000000, 
-0.17939199015290117, 0.008503802106410066, 0.011630459001037291, 3293539000000, 
-0.07567054591075231, 0.023099205674467244, 0.014104141776972506, 3293544000000, 
6.766866356730288, 0.008802662589062489, 0.016943625107948456, 3293549000000, 
0.07628065422147257, 0.0048606430452697875, 0.018852460987353326, 3293554000000, 
-0.10684633573331068, 0.021231517162431292, 0.019986508586139727, 3293559000000, 
-0.07934335835904878, -0.008202164590362, 0.020952905194306468, 3293564000000, 
-0.0721189396301532, 0.005719580719171296, 0.021291526457261012, 3293569000000, 
-0.05093793527458778, -0.01814841961346782, 0.0213603297618853, 3293574000000, 
-0.06893821684013533, -0.02540892603415312, 0.020578964778946867, 3293579000000, 
6.279343924877405, 0.0006877735621762797, 0.01884088130925533, 3293584000000, 
-0.14828148287298412, 0.01424831159288705, 0.015476237472256592, 3293589000000, 
-0.10181672577896979, -0.005002688534256917, 0.012514728092899951, 3293594000000, 
-0.07487762760733759, 0.011495725630465563, 0.007859614089903181, 3293599000000, 
-0.049670021060968815, -0.0002808790265592116, 0.003392594503300392, 3293604000000, 
-0.07721392898312997, -0.001967534494000971, -0.00021722413715883466, 3293609000000, 
-0.044421472039004976, -0.02214140202203106, -0.004957470527601984, 3293614000000, 
-0.046004822607748276, -0.006761079343134451, -0.007977186890082344, 3293619000000, 
-0.05226700742692708, 0.0026622869328320493, -0.010284525814553521, 3293624000000, 
-0.057960801202672385, 0.0007615827657535574, -0.011750630722531989, 3293629000000, 
-0.04899876077290394, -0.0020891705653026645, -0.012741473476431458, 3293634000000, 
-0.0469406779273145, -0.015720624156021212, -0.013002699018106013, 3293639000000, 
-0.026361161458370586, -0.02293901816418547, -0.011330411652327633, 3293644000000, 
-0.04363701284891183, -0.022537170249837795, -0.009872801744608771, 3293649000000, 
-0.0468137631338738, 0.008836690023519937, -0.007580415895956649, 3293654000000, 
-0.03605809909284977, -0.014252100005423301, -0.005435355246688485, 3293659000000, 
-0.07008654537148355, -0.014797456991852812, -0.0026283082967877066, 3293664000000, 
-0.04766744536732103, 0.007310669654293736, -0.0001320446291506044, 3293669000000, 
-0.05758408954019959, 0.01732875858024419, 0.002335224731875466, 3293674000000, 
-0.030289922602192865, 0.008787732109174365, 0.0044116252119072216, 3293679000000, 
-0.049297115125609206, -0.006974564986672866, 0.005531714530165998, 3293684000000, 
-0.04266144790972587, -0.026777803552344756, 0.006783113119255534, 3293689000000, 
-0.024146341604542793, 0.011547599408627958, 0.0073410208990844624, 3293694000000, 
-0.03863605456472127, -0.012525667239410065, 0.007266058782458026, 3293699000000, 
-0.05838561529372097, -0.009814365869150807, 0.006906521699341315, 3293704000000, 
-0.039833350424451255, 0.0076867573593503965, 0.0062679787310885755, 3293709000000, 
-0.03410481239646407, 0.01632929924378051, 0.005106556170636662, 3293714000000, 
-0.05199238015707315, 0.029222258455132752, 0.0037795706435266763, 3293719000000, 
-0.03619906884323813, -0.006907310976039585, 0.0018317800436482383, 3293724000000, 
-0.05495181396722312, -0.012654679982775606, 0.0004282748932292324, 3293729000000, 
-0.06622828157991745, -0.016403260003718653, -0.0007634522207565806, 3293734000000, 
-0.03558641274280481, -0.023971655098976502, -0.0020952873783205827, 3293739000000, 
-0.036192784182940856, -0.01822389117965826, -0.003037273684183882, 3293744000000, 
-0.0799351354876838, 0.030489316949359618, -0.0041647860533626044, 3293749000000, 
-0.020989261146944202, -0.012411976850657296, -0.0044673791487375965, 3293754000000, 
-0.035351603571915066, -0.027401115569009885, -0.00445671558626691, 3293759000000, 
-0.05847326304528455, 0.01995103123133456, -0.0035908603533187393, 3293764000000, 
-0.04527062364226619, 0.0032733800921691757, -0.003652963097221127, 3293769000000, 
-0.06686506565347514, 0.016339383861931144, -0.0031585915835534613, 3293774000000, 
-0.019931523523435603, 0.021368230820188377, -0.002300403518699426, 3293779000000, 
-0.045791623462082695, 0.00469248517849343, -0.002165957671740454, 3293784000000, 
-0.012470757338217557, -0.025525579877453596, -0.0005791638483432333, 3293789000000, 
-0.0784994819436809, 0.008501727224638905, 0.00020955938427908601, 3293794000000, 
-0.016986910782599056, -0.029975575607949098, 0.0008340327758047633, 3293799000000, 
-0.05570526663478227, 0.0230346557733256, 0.0018114468481535478, 3293804000000, 
-0.07458611626988469, 0.010580438067718767, 0.002037833014453079, 3293809000000, 
-0.04847005820373644, 0.01006960989553735, 0.0023069587108548225, 3293814000000, 
-0.05471811813896015, 0.003857222525854901, 0.0024914587138983157, 3293819000000, 
-0.05111382631189675, -0.0125439800103639, 0.0023142023204469017, 3293824000000, 
-0.04124054641412778, -0.006527553950619248, 0.0028245245123593317, 3293829000000, 
-0.06926152392240464, 0.014952953164675044, 0.002114799577102734, 3293834000000, 
-0.03693626198105472, -0.0016899584492981443, 0.0013489121208949725, 3293839000000, 
-0.03118524733276334, -0.01120841884495065, 0.0007434173133289161, 3293844000000, 
-0.0707709107210968, 0.013918805113726677, 0.00043378438197501075, 3293849000000, 
-0.06269766104922213, -0.01598888953592943, 0.0001249776790967823, 3293854000000, 
-0.044736532985578684, 0.009175525309031691, -0.00020076014151943964, 3293859000000, 
-0.04423150628140402, -0.009808395158046436, -0.0006908491900106349, 3293864000000, 
-0.04413941956298478, 0.0051284350876922395, -0.0008472254220963872, 3293869000000, 
-0.04186872529080287, 0.0016643209531956146, -0.0017008756957506575, 3293874000000, 
-0.040108075839618375, -0.008093219457961995, -0.0013844738305492114, 3293879000000, 
-0.06471010335484301, -0.0033521250301759464, -0.0014895771763747373, 3293884000000, 
-0.04120650906345143, 0.002115941649928997, -0.001182669110393903, 3293889000000, 
-0.031357704099369714, -0.0037579147475727613, -0.0011761981220247376, 3293894000000, 
-0.04806824283181435, -1.7967120081163572e-05, -0.0007616984535648594, 3293899000000, 
-0.04029414119882234, 0.005782481580112497, -0.0007661054858702581, 3293904000000, 
-0.060740944798606165, 0.0037631429221413135, -0.00031758283765670936, 3293909000000, 
-0.04942088194917685, -0.009533842690963046, 2.0528711529087146e-05, 3293914000000, 
-0.004743337223183361, -0.022760987695761906, -4.2773110079444846e-05, 3293919000000, 
-0.05769596867990616, 0.016273632259107003, 0.00012472450596932503, 3293924000000, 
-0.037332290503903846, 0.012373407729939145, 0.0004972252701278829, 3293929000000, 
-0.046781099101454664, -0.012795154639372199, 0.000792744930794677, 3293934000000, 
-0.049518792332037535, -0.004700437805901557, 0.0009352567807390652, 3293939000000, 
-0.02016204971831148, 0.009368115025314563, 0.0009142461954807027, 3293944000000, 
-0.06638466344153546, -0.029070483628370267, 0.0008688434542491986, 3293949000000, 
-0.05231551580278629, 0.01018576946718682, 0.00033296152174128256, 3293954000000, 
-0.0696843392817052, -0.015357648333812021, 0.000841911767927238, 3293959000000, 
-0.052870498815406716, 0.005573120242721097, 0.00028522041120456176, 3293964000000, 
-0.040290745265232505, 0.01750329854174508, 0.0003498590277895088, 3293969000000, 
-0.06465338899802228, -0.024158429824587508, 0.0003038439217672263, 3293974000000, 
-0.06470987015576483, 0.01121029253190855, -0.0003937692055547927, 3293979000000, 
-0.03732267782030192, 0.0002881223507485186, -2.2377376392580236e-05, 3293984000000, 
-0.038240667657101796, -0.029046090524618335, -0.0002591236634248587, 3293989000000, 
-0.054267283339113105, 0.015486661812780567, -0.00036998324845092764, 3293994000000, 
-0.0668565641834321, 0.018901558466506936, -0.0002704312209659298, 3293999000000, 
-0.06288327093646048, -0.01008578192428459, -0.0004003592425501517, 3294004000000, 
-0.046400069244553026, -0.004458719018692199, -0.0003402823527698722, 3294009000000, 
-0.02063582172218447, -0.007560588021202415, -0.0006458568146784755, 3294014000000, 
0.026462283162956186, 0.002817937155613677, -0.0004267691608656523, 3294019000000, 
-0.21278865085872758, -0.01692594988709877, -0.0002490470687113276, 3294024000000, 
-0.050118926270725735, -0.0010155359173816207, -0.00020766725748018952, 3294029000000, 
-0.013185419487477958, -0.016884144382765198, -0.0002678070438595083, 3294034000000, 
-0.056642320320463076, 0.029885189727463034, -0.0002179770543816198, 3294039000000, 
0.048459112580579014, 0.016966846887904907, 0.00012995494286714766, 3294044000000, 
-0.1857279371085595, -0.02624869602970408, -3.150472224403017e-05, 3294049000000, 
-0.0569761803599824, 0.004905658821778711, 0.00037325747705740497, 3294054000000, 
0.020489837003958646, -0.018997844448528933, 0.0005363800293290466, 3294059000000, 
-0.18783102114677497, -0.014281682882836095, 0.0006090760603503986, 3294064000000, 
0.05800520707298998, 0.020693910745899952, -6.755671719841142e-05, 3294069000000, 
-0.1642639953852202, -0.03143597808781784, 0.00038170526323762173, 3294074000000, 
-0.08640375684664173, 0.006549035853716281, 0.00024983532108325954, 3294079000000, 
0.07057972595066674, -0.023217174722330217, 0.0003149047615513264, 3294084000000, 
-0.18011586539380575, -0.019867546925464045, -4.600208180995986e-05, 3294089000000, 
0.05882721368465369, 0.0007356179446523751, 0.00036710034389013775, 3294094000000, 
-0.07539861724639962, 0.026326514841117234, -0.00020803709632012982, 3294099000000, 
-0.16622860544159165, 0.034502019762243534, 0.00010995478059047656, 3294104000000, 
0.05866880735586903, -0.013402573277557315, -0.0001990850473800537, 3294109000000, 
-0.07180472572648904, -0.00715333995046202, -0.0001352435735115431, 3294114000000, 
-0.2112720223520056, 0.014242738620258853, 0.00010807414055710729, 3294119000000, 
0.04187518025894446, 0.04741511683851424, -0.0005428434694758227, 3294124000000, 
-0.06179742862546985, 0.008496067528934202, -0.0001305457039706514, 3294129000000, 
-0.18401754290795083, -0.01587029021239252, -0.00026749857082685504, 3294134000000, 
0.02928079643285933, 0.00010923892104477517, -0.0005390609879892432, 3294139000000, 
-0.023203693399711872, -0.012440815661623719, -0.0005124727105267094, 3294144000000, 
-0.25027417367885857, -0.03131580792647495, -0.00020049520928600495, 3294149000000, 
0.05995646338815062, 0.025236024592957963, -0.00022660896114333023, 3294154000000, 
-0.06446368910342906, 0.027541865456435683, -0.00012342496755260072, 3294159000000, 
-0.23031834078874774, 0.02737042752527992, 0.00032089895912945686, 3294164000000, 
0.07719402267755986, -0.01658739402000889, 3.563606243147229e-05, 3294169000000, 
-0.0696843350522802, 0.005127987025155485, -0.00027188938924676084, 3294174000000, 
-0.19266102758662484, -0.0359966884318071, 0.00016737451107117965, 3294179000000, 
0.07611691162378283, -0.0002970368559555758, -5.098753209304888e-07, 3294184000000, 
-0.07003804309388922, 0.0004205175273327576, 0.000177835325850041, 3294189000000, 
-0.21558808862065698, 0.0012695059621924392, 0.0001672535087434102, 3294194000000, 
0.12230950108050126, -0.018282999833244648, -0.00027510287972741775, 3294199000000, 
-0.05137895828664915, 0.027735468175904037, -0.0001092210675116189, 3294204000000, 
-0.2554355593010192, 0.004993034569677807, 0.0001017551433804552, 3294209000000, 
0.04913440192878844, 0.024191033115765405, -7.197832859522614e-05, 3294214000000, 
-0.05962837558956052, 0.015590564111061753, 5.396958653777573e-05, 3294219000000, 
-0.2001013813968207, 0.022594903966198027, 4.425078032476615e-05, 3294224000000, 
0.09135781627918177, 0.0016243622681380175, 0.00040068568487792403, 3294229000000, 
-0.04851197045478985, 0.014388300785589865, -0.00014753768814360535, 3294234000000, 
-0.22835082046606026, -0.00981037010481261, -0.0004453621631593614, 3294239000000, 
0.08634665975327713, -0.020087474203315213, -0.0002934538532737646, 3294244000000, 
-0.04937313635620054, 0.004064486441569711, -0.0003011982001852702, 3294249000000, 
-0.20523081071032917, 0.03609912225839918, -0.00023450002856500253, 3294254000000, 
0.12034490555136361, -0.021645454967078245, -0.00036886418442863545, 3294259000000, 
-0.10622076052553855, -0.0005897952118262122, 1.3255014816952611e-05, 3294264000000, 
-0.22320884041154995, -0.04238027801966146, -0.00010985271412951379, 3294269000000, 
0.08522209649954447, -0.001974537291829681, -6.714256782140246e-05, 3294274000000, 
-0.21049501980300855, -0.0003282002673102598, 7.32428742819005e-05, 3294279000000, 
0.0847590913177493, 0.021301359019094947, 1.1143318167623227e-05, 3294284000000, 
-0.07285397875822208, 0.021088615769208837, 0.00024865267288875793, 3294289000000, 
-0.21441010980509198, 0.013060083273880854, -4.331464201876173e-05, 3294294000000, 
0.10585968769501063, -0.011517541965810412, -5.5745965444506515e-05, 3294299000000, 
-0.2588754968316583, -0.005854098709009884, 5.3600498487808704e-05, 3294304000000, 
-0.06052142796777589, 0.018219845857078646, -1.3184309172452222e-07, 3294309000000, 
0.10077137136974394, 0.005602615753005753, -0.00041275800867238626, 3294314000000, 
-0.23814537588577356, -0.006178928863172833, 0.0002000592951551279, 3294319000000, 
0.14512358285214272, -0.00447184424356824, 0.00015251315952771548, 3294324000000, 
-0.25194924714111944, 0.006290259950994311, -0.0002612147816107454, 3294329000000, 
-0.04959979452371096, 0.03320157673247438, 0.0005003275007496802, 3294334000000, 
0.09437674368006173, -0.01597934416518068, 9.059434568258651e-05, 3294339000000, 
-0.24295411769007702, 0.015316896445148886, 0.00019583210570041265, 3294344000000, 
-0.025476330250635955, -0.008772517403235142, 0.00045713467686459784, 3294349000000, 
0.11660112573870463, -0.02258219672040741, -0.00010209181616597593, 3294354000000, 
-0.2206796925434769, 0.028418459905622008, -0.00018558158938232315, 3294359000000, 
-0.03497954066166495, -0.04644042769161513, -0.0002201259588646767, 3294364000000, 
-0.04410203025237453, 0.00042761251691305333, -0.00016382046875601896, 3294369000000, 
0.12585258524314613, -0.004719721662414201, 0.0002561857139437396, 3294374000000, 
-0.2255520402857869, 0.004262480064751366, -0.00019900134685218516, 3294379000000, 
-0.05891128686096639, -0.0072390237112576125, 0.00018077325140460835, 3294384000000, 
-0.06781869886315711, -0.008058412225199523, -0.0004944629106258396, 3294389000000, 
-0.09148294636985446, 0.008884456859288958, -0.00016035245966148279, 3294394000000, 
-0.0372097098645507, 0.02167827880386389, 0.00016604653235718762, 3294399000000, 
-0.06383338078939689, 0.005252894017315202, -0.0002539769779311537, 3294404000000, 
-0.04439644396268225, 0.010458630071602418, 1.1063978243624358e-05, 3294409000000, 
-0.03715303008683203, 0.00863980613823889, -2.9722949208122203e-05, 3294414000000, 
-0.06340406232979391, 0.00015282687495975624, -0.00020503656003727124, 3294419000000, 
-0.05798772843536682, -0.001316787609054885, -0.00010051406482200918, 3294424000000, 
-0.035940854945826606, 0.015308864236573946, 0.00015740293774126683, 3294429000000, 
-0.07057243114820645, 0.022218279517076073, -0.00012396758574940054, 3294434000000, 
-0.06846594567305683, 0.011422348595342071, -2.0675309055999963e-05, 3294439000000, 
-0.02146397086831362, 0.01832370253224027, 0.00016753939979986343, 3294444000000, 
-0.05043143776945879, 0.03531009395809852, 0.0001725777767704094, 3294449000000, 
-0.03763121825157736, 0.031174684902461097, -0.0003315812947382353, 3294454000000, 
-0.049536175149244396, -0.010488162164917068, -0.0001762598351852134, 3294459000000, 
-0.03045401236276623, 0.018648417318211527, -0.00033922711243174615, 3294464000000, 
-0.04372236979510657, -0.027038913054461152, -3.066138823077162e-07, 3294469000000, 
-0.04628852988520828, -0.017318605750912635, -0.0001360724498321761, 3294474000000, 
-0.03632608279001514, -0.003147498692493246, -1.0516233174078044e-05, 3294479000000, 
-0.024283659361866283, -0.009478842782971012, -0.00019753684260829325, 3294484000000, 
-0.045895872308553555, 0.012570278057338112, 5.115726912448028e-05, 3294489000000, 
-0.08581308282544621, -0.010572113611998986, 7.674218034695634e-05, 3294494000000, 
-0.04780068036285214, -0.006918380446272235, -0.00018382614203270845, 3294499000000, 
-0.03379026686077955, 0.000623837910943676, -0.0002234958157341058, 3294504000000, 
-0.05238370797685999, -0.0043808366202291935, -0.0002973867711063825, 3294509000000, 
-0.03664841247687983, 0.015013090472215109, 8.706953855204579e-05, 3294514000000, 
-0.051625195486354726, 0.01682068733472409, -0.00025213211676068236, 3294519000000, 
-0.05779226393882453, -0.0007033288133414346, -0.00019346453226847391, 3294524000000, 
-0.0643497616975609, -9.03092573572926e-05, 0.0003060531687375421, 3294529000000, 
-0.058798373011854005, 0.003951302170672099, -0.00010157879257647545, 3294534000000, 
-0.029017843790810464, 0.010841856456853458, -7.981020815339335e-05, 3294539000000, 
-0.03481125452709416, -0.010351555650072572, 6.719706558809611e-05, 3294544000000, 
-0.049059215415192335, -0.007690109481295404, 8.9595370026298e-05, 3294549000000, 
-0.05816481191699936, -0.026619833516271466, 5.201178894070075e-05, 3294554000000, 
-0.05611372290347689, -0.008974610233527316, -0.00012945416689181445, 3294559000000, 
-0.03973731461124992, 0.009085058176761088, 0.0003938119952533734, 3294564000000, 
-0.022411221466216557, -0.029708356517951527, -7.366704925894405e-05, 3294569000000, 
-0.03575772621333294, -0.020601526596830566, -0.0002018321759412671, 3294574000000, 
-0.04120051432248566, 0.025343624665487882, -7.02668765210879e-05, 3294579000000, 
-0.04288224843740494, -0.007118467360128262, 1.4726305195373803e-05, 3294584000000, 
-0.07270043216813281, -0.015220406083107247, -2.1725917959513364e-05, 3294589000000, 
-0.07153968981230527, -0.024191850328298823, -0.00017451670232606704, 3294594000000, 
-0.08890255601130466, 0.014070805557372713, 0.00017836159776037333, 3294599000000, 
-0.046942302277493866, -0.011183006696893583, 6.1033031236572055e-05, 3294604000000, 
-0.05818630803668613, -0.006706471497689764, 0.00019933335184278296, 3294609000000, 
-0.031987723399857705, 0.013410959108097547, 6.313762835060263e-05, 3294614000000, 
-0.0824597293497098, 0.011457957256243427, -0.0001559650297711469, 3294619000000, 
-0.06683004483979753, 0.02322272705663699, 0.00020990405106630604, 3294624000000, 
-0.0025560057905942256, 0.0012356569688798781, 0.00010121672927368358, 3294629000000, 
-0.05502590461474105, -0.012762298455133323, 0.00037153901192204825, 3294634000000, 
-0.05874923195566013, -0.0130889234722062, 0.00019144485611233722, 3294639000000, 
-0.03325711770828991, 0.013678063343325325, 0.0002349250230101463, 3294644000000, 
-0.06534122010985585, -0.014720446359658093, -3.6249000986447846e-05, 3294649000000, 
-0.06410628468413121, 0.0003677535030614992, -9.318374076157998e-05, 3294654000000, 
-0.032798241334627075, 0.02250205552957524, -0.00044882334684237697, 3294659000000, 
-0.060340436989571665, 0.00557342617207022, 0.00016110607243224708, 3294664000000, 
-0.04861166059642034, 0.03284939958460394, 1.8474450417933948e-05, 3294669000000, 
-0.03958393083524942, -0.009361650814315167, 9.349309471066663e-05, 3294674000000, 
-0.08509515819817638, -0.01533343693647981, -0.00038580466026773985, 3294679000000, 
-0.07155205276109139, -0.008660447312322354, 5.077962711220668e-05, 3294684000000, 
-0.05373329479549592, 0.0063189302645892485, 0.00028262709854802746, 3294689000000, 
-0.07017074409983924, -0.006994558890787995, -6.892728298014695e-05, 3294694000000, 
-0.05011886638181705, 0.0010070701338082092, -0.00043314974641704685, 3294699000000, 
-0.10332207788209116, 0.002857203623277445, 0.0001760359757826872, 3294704000000, 
-0.03860529592130004, 0.0005150717506773755, -3.6781680165441336e-05, 3294709000000, 
-0.043653826622096596, -0.018197101338256815, -0.00022764326396681434, 3294714000000, 
-0.04647222708991101, 0.013436453769012993, 0.00013061514989170972, 3294719000000, 
-0.0012498505005863539, -0.010879309956546304, 0.0002396921887846029, 3294724000000, 
-0.07032064076142959, -0.004106470902130585, -0.0003918469546159852, 3294729000000, 
-0.06696780895767523, 0.004389643708215969, -5.812174462587817e-05, 3294734000000, 
-0.03583399318623146, 0.0031638525807790945, -6.565581440718688e-05, 3294739000000, 
-0.0980839769811328, 0.003180110844617753, 0.00016898727575910663, 3294744000000, 
-0.06389767952688642, 0.035797951892401494, -0.0001254603835163804, 3294749000000, 
-0.0671741263666249, 0.012895509019399686, -6.319585208608133e-05, 3294754000000, 
-0.07983678799673578, 0.00954262198987101, -8.068814069428218e-05, 3294759000000, 
-0.051748027759154366, 0.01996697831273559, 3.8511020786071274e-05, 3294764000000, 
-0.07567598532480822, 0.016927561659749346, -6.022399927026893e-05, 3294769000000, 
-0.08599555022575428, -0.0033300401538775477, -0.00013872776776576972, 3294774000000, 
-0.05921537481127239, -0.0012021520533004395, 4.2188240434227774e-05, 3294779000000, 
-0.060750459195385485, 0.006505545171817249, 0.0002969993761957843, 3294784000000, 
-0.04671208114199462, -0.032496401065275904, 0.000407581286568405, 3294789000000, 
-0.07207955464451893, 0.00948736248821511, 6.448159927417723e-05, 3294794000000, 
-0.0964078717789989, -0.012920805210181168, -0.00027063290164459707, 3294799000000, 
-0.09430639400170823, -0.005607807613534034, -0.0001320570360197117, 3294804000000, 
-0.04928985309699597, -0.01950205204710066, 0.00014293908390441488, 3294809000000, 
-0.04115387337406329, -0.00284323489428618, 9.940453445821e-06, 3294814000000, 
-0.08844356826298945, -0.0014350294305167893, 0.00011649114940034512, 3294819000000, 
-0.05329502950838864, 0.012517742562017244, -6.119462015944872e-05, 3294824000000, 
-0.033546257656782305, 0.006190442726236841, 6.207525740420203e-05, 3294829000000, 
-0.04784871772760173, -0.016085146447731943, 6.636528542727025e-06, 3294834000000, 
-0.06692395256386342, -0.012453373671255997, 2.003594100399149e-05, 3294839000000, 
-0.07327506613835034, 0.009732745537783562, 0.0001458190152174224, 3294844000000, 
-0.10494581637996295, -0.004161321771504115, 3.082529257126628e-05, 3294849000000, 
-0.07010941930317398, -0.013148859088674445, 8.8541547701812e-05, 3294854000000, 
-0.049854420723340745, 0.005157578956224199, -7.119626990062592e-07, 3294859000000, 
-0.07386486684868773, 0.007430836359170771, 0.00021230118962699317, 3294864000000, 
-0.0582091903386013, 0.013009371095616257, 0.0002797855974166962, 3294869000000, 
-0.058117505925914935, 0.009772595211140538, -0.00013410429766533283, 3294874000000, 
-0.05674960412758201, -0.019225643798093463, -0.00027036032654670475, 3294879000000, 
-0.05912390292888608, -0.024137157472800375, 0.0002848885241271526, 3294884000000, 
-0.09122760894069928, -0.007977164970058714, -6.997298920842432e-05, 3294889000000, 
-0.024614116670372554, 0.017529506904581778, 8.850364554538032e-05, 3294894000000, 
-0.08049384851765112, 0.0014075741832327785, -0.00018619325969280721, 3294899000000, 
-0.09041769026593104, -0.02149934424835173, 4.351829893996983e-05, 3294904000000, 
-0.05522250025293739, 0.02565332989152271, -0.000525666079071475, 3294909000000, 
-0.08508135462855546, -0.03345404266934598, 0.0004352701160892162, 3294914000000, 
-0.03091157525037262, -0.0023922333582103647, -0.00034766078629621744, 3294919000000, 
-0.04143803205696399, -0.010811631596370707, -0.00014593131138802194, 3294924000000, 
-0.0923842230149117, 0.006057739334243584, -7.466680758236004e-05, 3294929000000, 
-0.06175173830907931, 0.013833583238941679, 5.3967160669826985e-05, 3294934000000, 
-0.07315507713482744, -0.02598286251071829, -0.0002222182119537085, 3294939000000, 
-0.07653641432696542, -0.03804135952433424, -4.3612512332792444e-05, 3294944000000, 
-0.04879062343369774, 0.016912281747948964, 0.00014052647897692505, 3294949000000, 
-0.04778540631531503, 0.013518555586627451, -1.8766242437498855e-05, 3294954000000, 
-0.09587768924832674, -0.007831398164024402, 0.00024400150171440506, 3294959000000, 
-0.0404970587168091, 0.0003636416684959043, -7.028907453873165e-05, 3294964000000, 
-0.03867445487508482, -0.020339243080269753, 0.00039984747257694095, 3294969000000, 
-0.062455818360084764, 0.001621453869128691, -0.0001405927785374945, 3294974000000, 
-0.044145140811863805, -0.004174589910302494, -0.00025499910341178944, 3294979000000, 
-0.019426099893962268, -0.010145319330770695, 0.00018423890062707203, 3294984000000, 
-0.04215150390455805, -0.02235964785703356, 0.00020736426777133137, 3294989000000, 
-0.03873969172678429, 0.004812412369137618, -0.0002463072778165226, 3294994000000, 
-0.055538243366113675, 0.010021106249728842, 0.0002106983816501437, 3294999000000, 
-0.01657329539504846, 0.009367940828030786, -0.0002475418312178211, 3295004000000, 
-0.03181704858812527, -7.500980196500722e-05, 2.2930581589671583e-05, 3295009000000, 
-0.07898296194813846, 0.01778974625077538, -1.8516341668148567e-05, 3295014000000, 
-0.04527291293527756, -0.0011728778533540377, 3.5600963943810784e-05, 3295019000000, 
-0.02222195923100824, 0.004484963768380585, -0.0003710666014038119, 3295024000000, 
-0.08293880268229248, -0.01760393222097175, 0.00042882505531275956, 3295029000000, 
-0.07779864866695171, -0.0031837127062653734, 0.00018017547567662618, 3295034000000, 
-0.05815666872368935, -0.00633176517545015, -0.0003171088973175317, 3295039000000, 
-0.05191280928722755, -0.003103798452244787, -0.00012230711854115613, 3295044000000, 
-0.042903152949946934, -0.020026975378964133, 9.175656232169235e-05, 3295049000000, 
-0.02788207042654777, -0.02628734752524119, -9.794446632962389e-05, 3295054000000, 
-0.05387372035464948, 0.009243438694344342, -0.0001184989316168972, 3295059000000, 
-0.06521060407371493, 0.03942602564166348, -0.00012841014390718174, 3295064000000, 
-0.03588692057870743, 0.015443998181297405, 0.00032785551845013867, 3295069000000, 
-0.04801421155231756, 0.010422717721786157, 0.00016432795332552944, 3295074000000, 
-0.027056947122268638, 0.033433408794747946, 5.604278064559713e-05, 3295079000000, 
-0.03319685131383844, -0.00326964395184645, -1.9304082789157674e-05, 3295084000000, 
-0.058078318397377905, 0.010202902484298894, -1.2624534040029607e-05, 3295089000000, 
-0.033158020827813814, -0.02539643018434189, -0.00024687904081219404, 3295094000000, 
-0.07380221414446546, 0.013040182508380826, 0.00019804564086975987, 3295099000000, 
-0.0665297023987593, 0.0031575138934250876, 0.0003349903082745282, 3295104000000, 
-0.05482068091427505, -0.003989016902851281, 7.037285093723784e-05, 3295109000000, 
-0.045186572015121926, -0.014761448873219021, -0.0001422659525273679, 3295114000000, 
-0.045008086081125706, -0.007742724641677414, 0.00021164441466662112, 3295119000000, 
-0.060968628344306434, 0.00330944431818415, 5.7994464149873817e-05, 3295124000000, 
-0.06357105131302739, 0.03289337712677922, -0.0004135762084512728, 3295129000000, 
-0.04025855098537238, -0.0032349150058314105, 0.0002343778104633264, 3295134000000, 
-0.012469747111514058, -0.01648470557090621, -0.000210033757034605, 3295139000000, 
-0.04367211149342582, -0.004897455762181043, 0.000340193866862182, 3295144000000, 
-0.08485945903362825, 0.024989356010387175, 0.00013666029680902073, 3295149000000, 
-0.053371678557402595, -0.016582236679956817, -0.00011623599327732104, 3295154000000, 
-0.06542554327398006, 0.02275512645529979, 0.0001405110202730807, 3295159000000, 
-0.02153202341964398, -0.026778504030182802, -0.00038877727533355785, 3295164000000, 
-0.03502540846463872, -0.0192740875412618, 0.00015439466768360675, 3295169000000, 
-0.034854656577402006, -0.002689793712502041, 0.00040490804320963687, 3295174000000, 
-0.059188716363024065, 0.011010163050355817, -0.00010424335073142846, 3295179000000, 
-0.05788433820258815, 0.007160936159524904, 9.71446025738369e-05, 3295184000000, 
-0.028277827641338765, -0.021879091297126514, 0.0002339095897005491, 3295189000000, 
-0.07320060129506653, -0.034174570078635946, 0.00013647520946143764, 3295194000000, 
-0.06553589731522366, -0.02883881176547942, -0.00011879857450669559, 3295199000000, 
-0.07161623662163319, -0.01289126297124338, 4.8241903113697786e-05, 3295204000000, 
-0.03947635803711705, -0.0013079074651624204, 0.00042247513027302865, 3295209000000, 
-0.05249592880188019, 0.022674534609796338, 4.615459574298497e-05, 3295214000000, 
-0.06441306875262102, -0.0281046725323663, 7.798099979330791e-05, 3295219000000, 
-0.023192820699134288, -0.004088350278733403, 0.00010319955266375212, 3295224000000, 
-0.07489606830254092, -0.012189953885227077, 0.00021882841235528323, 3295229000000, 
-0.057044819647684125, 0.023369506057509527, 0.0002393918271463357, 3295234000000, 
-0.06081900116054104, -0.019735541836201905, 0.00026425661812489506, 3295239000000, 
-0.06434253707141305, 0.011417907735713188, -0.00010368080158474962, 3295244000000, 
-0.025579842470627154, -0.008279621202681081, 0.00012982880024343181, 3295249000000, 
-0.06417773233230442, 0.029099015969124897, -9.868211302119078e-05, 3295254000000, 
-0.059970707132298046, 0.0049782453315597025, 4.777919138135808e-05, 3295259000000, 
-0.06879021919463162, 0.010985299570761381, -5.707596594067905e-07, 3295264000000, 
-0.05120850165992849, -0.00948749773656494, 0.0002523133912732646, 3295269000000, 
-0.06742542594928759, 0.007165432934916019, -0.0001395938667501468, 3295274000000, 
-0.068277580515401, 0.010597626549765942, 1.6383542977351034e-06, 3295279000000, 
-0.06851678769377205, -0.0140309244593185, 0.00016874999740802541, 3295284000000, 
-0.0580705647008447, 0.0025221327952830034, 5.3160550926033464e-05, 3295289000000, 
-0.02346501611761316, -0.0004659698073862837, 0.00021297988160612897, 3295294000000, 
-0.04463234568573416, -0.01956924822481313, -0.0001374320874557275, 3295299000000, 
-0.04336849569678771, -0.001987052297627064, -9.901370451238053e-05, 3295304000000, 
-0.03926723310490621, 0.01471881397354111, 0.00024268370360342928, 3295309000000, 
-0.06051549266719397, 0.015337965346765778, -0.00011910691277017975, 3295314000000, 
-0.040775187953888355, -0.009260771348921374, 0.000400269648344328, 3295319000000, 
-0.08347885175484349, -0.0005295694604475116, 0.00017971942516839366, 3295324000000, 
-0.06335677605040298, 0.04108245017796795, -0.0002225006454445744, 3295329000000, 
-0.05730586760540919, -0.027427514998827812, -5.683230829659965e-05, 3295334000000, 
-0.06040650227475094, 0.020966125409594975, 0.00016652956555512512, 3295339000000, 
-0.06834664732916557, -0.01971219785652843, -0.00023246071009865618, 3295344000000, 
-0.025261426690839625, -0.0009157259950346208, 7.226001502830127e-05, 3295349000000, 
-0.03814380872602867, 0.023549473156832496, 4.8547954466445305e-06, 3295354000000, 
-0.06706346941808958, -0.0011753367876665174, 0.00019873572121856413, 3295359000000, 
-0.06950503384873169, -0.012448239807415839, -0.00015088905726426272, 3295364000000, 
-0.030993390247750434, -0.004621533445416678, -0.0002625893070769657, 3295369000000, 
-0.048271862201084634, -0.012826586316503316, -0.0001366504203155759, 3295374000000, 
-0.06584637512840577, 0.006851314052187304, -0.0001196591360511749, 3295379000000, 
-0.03471218573850947, 0.019253846187086025, 4.19495272525027e-07, 3295384000000, 
-0.06902686429358687, 0.02853049392586701, -0.00042303529586668027, 3295389000000, 
-0.05555154246499987, -0.011801902896812213, 0.00024742277232450726, 3295394000000, 
-0.06527760536475184, -0.0005198317471415847, -0.0002472561583943835, 3295399000000, 
-0.08158325265152619, -0.02342731506318979, 0.0001693995401388337, 3295404000000, 
-0.07315944781211052, 0.0034046685795486808, 0.00015072925465078594, 3295409000000, 
-0.05604251782627985, -0.022672629299808473, -0.0002964555016725324, 3295414000000, 
-0.06807656703178833, -0.022495954128701177, -8.829991907384045e-05, 3295419000000, 
-0.06424051016627548, 0.014962421531135871, -3.463272653854532e-05, 3295424000000, 
-0.05430056063607466, 0.024724156660776157, 0.00017020138527639586, 3295429000000, 
-0.06172732410461052, -0.02796348497090371, 0.00021721746202820215, 3295434000000, 
-0.09184857967940586, 0.003469797210082606, -0.0003843620049237084, 3295439000000, 
-0.03615797710882181, 0.03141647446004695, 3.59003645259708e-05, 3295444000000, 
-0.05278281045846334, -0.009312630757328931, -8.635387321720054e-05, 3295449000000, 
-0.042613893071444905, -0.0021015691462807767, 6.45265466540572e-05, 3295454000000, 
-0.015399160996638447, 0.013292603822214392, -0.00024255134032743036, 3295459000000, 
-0.0553300996357417, 0.007396785111538435, 0.00012218271872154937, 3295464000000, 
-0.05893920743779356, -0.005405588200858133, 9.271563942491267e-05, 3295469000000, 
-0.0525019680869208, 0.010407031897762568, 0.00041842913628328154, 3295474000000, 
-0.03316902150594886, -0.0012192670793834542, 0.00016958829914100063, 3295479000000, 
-0.06475154213906742, 0.008258929588541629, -0.00024243641883420872, 3295484000000, 
-0.06313061525626251, -0.005379058641184315, 0.0001746823225826252, 3295489000000, 
-0.04753434907413946, 0.004836474868469294, 6.211721176031194e-05, 3295494000000, 
-0.054148307472781536, 0.0029709721037699042, -3.579070540464741e-06, 3295499000000, 
-0.07520844684202624, 0.03288050962229016, -3.0042769835595693e-05, 3295504000000, 
-0.05593565709564028, -0.0023481753244436387, -0.0003603713340998922, 3295509000000, 
-0.07971596698823397, -0.04297581967988977, -8.507214541164732e-05, 3295514000000, 
-0.05149899593610577, -0.011678433483323909, -0.00034715716723442044, 3295519000000, 
-0.07730201156245531, -0.01905350360937694, -9.213948528794182e-05, 3295524000000, 
-0.055100290124420845, 0.03567537428406781, -0.000152061856180457, 3295529000000, 
-0.06194498354220282, -0.013343364046861131, 4.524416003053398e-05, 3295534000000, 
-0.06352024571859669, 0.009742582861578298, 7.553719504451565e-05, 3295539000000, 
-0.0732759225568577, 0.009035565830690987, 0.00043979844804696225, 3295544000000, 
-0.06375456460583337, 0.011386366720212506, 2.7974373168613652e-05, 3295549000000, 
-0.07260928342607934, 0.015997840721559957, 0.0001333600711867169, 3295554000000, 
-0.0358552362761039, 0.024941511990389565, 7.70118031629705e-05, 3295559000000, 
-0.05021017045093919, 0.010064613219537335, 0.00019491896815051663, 3295564000000, 
-0.05563291644325501, 0.014189835433195701, 3.897247077120374e-05, 3295569000000, 
-0.05289309851589943, -0.017152239224009304, -0.00013816876961420614, 3295574000000, 
-0.05445063822932188, 0.042658874931450166, 0.00017044990943691128, 3295579000000, 
-0.041262234346297375, -0.022037507284543248, -5.612937909905941e-05, 3295584000000, 
-0.057478220243952, 0.004020482074248254, -7.85171359498049e-05, 3295589000000, 
-0.05065701375972011, -0.003929007626133977, 0.00010246683598613548, 3295594000000, 
-0.07517449138792295, 0.002543774622879061, 0.00020552708797082358, 3295599000000, 
-0.06118184221267794, -0.008242560479911338, 0.00010382486761365743, 3295604000000, 
-0.06694937783085815, -0.0032793520926896855, 0.0002779461546789923, 3295609000000, 
-0.06530929322640144, 0.060665079267483484, 5.8345615070261546e-05, 3295614000000, 
-0.054998234847819454, -0.007505090961912583, 0.000276720319078037, 3295619000000, 
-0.03848824570355839, -0.006908665195425682, -1.3437321673757218e-05, 3295624000000, 
-0.05116261402819328, 0.015931720576900458, -6.92167111985825e-05, 3295629000000, 
-0.05998909400233482, 0.018468387014173374, -4.607108922595498e-06, 3295634000000, 
-0.06364647901752792, -0.002246239512746058, 0.00012752610130407362, 3295639000000, 
-0.0709642579328726, 0.008355596618587624, -0.00038192204310180867, 3295644000000, 
-0.05791619187619809, -0.004140623446203074, -0.00019710823662412382, 3295649000000, 
-0.04628479065790189, 0.021203802789774257, -0.0001563400071658368, 3295654000000, 
-0.07873194627108979, 0.007983744516235031, 6.387666938681851e-05, 3295659000000, 
-0.055548400303087074, -0.012989501308146694, -1.6170387345235055e-05, 3295664000000, 
-0.03353476347505857, 0.01912538065027627, 0.0003246903269920017, 3295669000000, 
-0.03902261039569814, -0.014008051972077839, -6.102491125294813e-05, 3295674000000, 
-0.03517411709876431, 0.01936588072467825, -0.0001933055401685406, 3295679000000, 
-0.06638773005022423, 0.006555694477878284, -1.697631355629753e-05, 3295684000000, 
-0.07023786418008954, 0.0034229838387526135, -4.796266377772537e-05, 3295689000000, 
-0.05109900136741016, -0.035259172538533654, 2.9728727523951755e-05, 3295694000000, 
-0.06412468405820572, 0.015721379773616914, -4.142736659592891e-06, 3295699000000, 
-0.04164858492970187, -0.004248089369660723, -2.0389588166339164e-05, 3295704000000, 
-0.05314973292530952, -0.006815151640100922, -7.491434736052235e-05, 3295709000000, 
-0.046916827982098605, 0.005816491055034183, -0.00017098486393297656, 3295714000000, 
-0.06441845237231249, -0.010826531236505404, -0.0003360647547597893, 3295719000000, 
-0.06636965790682053, -0.002160028059379587, 8.676680528019544e-06, 3295724000000, 
-0.028831245327706742, -0.0034779812003627036, -0.00017955316379847678, 3295729000000, 
-0.08643135000195531, -0.012590137292449493, 5.959955256418519e-05, 3295734000000, 
-0.07492420470725075, -0.01876793049378253, 0.00038213459277642984, 3295739000000, 
-0.05228627397987838, 0.0031790942367734155, -0.0001846628459298151, 3295744000000, 
-0.061765167482193864, -0.015781258161342297, -0.00036824373030969535, 3295749000000, 
-0.0832113175030176, 0.023952334131196865, -6.619029077456872e-05, 3295754000000, 
-0.02892487144702395, -0.030525678272108697, 3.875437625332068e-05, 3295759000000, 
-0.08192019935169492, 0.024454470373142544, 4.596824794306183e-05, 3295764000000, 
-0.06235259116655052, 0.0002796899859983658, 0.00018209388010080932, 3295769000000, 
-0.028858949350831054, -0.012144084901331903, 0.00034905429748906795, 3295774000000, 
-0.07563070365267152, 0.008856884649010726, 0.0004999292140540399, 3295779000000, 
-0.03134323295915662, 0.02186461685322988, -0.0002417689285072153, 3295784000000, 
-0.06413604364069006, 0.015654735821833767, 5.027256119098744e-05, 3295789000000, 
-0.050483143620577035, 0.006321078693850815, 0.00019936385508538724, 3295794000000, 
-0.040419862080514686, -0.008369781666665065, -4.893335191097906e-06, 3295799000000, 
-0.03847592606625366, 0.02855420787728945, 2.6683632264901237e-05, 3295804000000, 
-0.02557356051428185, -0.012739108021625863, 0.00027909892024737996, 3295809000000, 
-0.051512093752605334, -0.00018736431886381293, 0.00019492049911181588, 3295814000000, 
-0.07203305966437011, -0.008778437003508572, -0.00017719729494681928, 3295819000000, 
-0.08244690547600095, -0.002234681554285372, 7.308598096715974e-05, 3295824000000, 
-0.06957831711435836, 0.0024634769332508594, -0.0004066299319233414, 3295829000000, 
-0.05476354704232955, 0.003566728242921784, 0.0002328290895609441, 3295834000000, 
-0.061416251008320544, -0.033442704920169285, 0.00018944468681532899, 3295839000000, 
-0.08569361724163713, -0.004889727049828023, -9.668368934580361e-05, 3295844000000, 
-0.0374744377521245, 0.0007670842159575263, 2.409371901257481e-05, 3295849000000, 
-0.044595447235768484, -0.020809162717991513, -3.756537170420455e-05, 3295854000000, 
-0.06369785432436668, -0.003993151012019476, 0.00014655210250917497, 3295859000000, 
-0.05403818140003335, 0.0016105869489457763, 3.492143179829798e-05, 3295864000000, 
-0.0465981645638751, 0.019016554927764433, 0.00021062542035225738, 3295869000000, 
-0.0640707542520714, 0.010297823724662786, -0.00010541840841548765, 3295874000000, 
-0.052381076808617935, 0.013171031619986036, 6.549330696961305e-05, 3295879000000, 
-0.0604945391384912, -0.011838224967364936, 0.00022589075738978315, 3295884000000, 
-0.04069053264047126, -0.004395088937894181, -1.9634575680926397e-06, 3295889000000, 
-0.02774761080281963, -0.01374438643215489, 9.356981638181784e-05, 3295894000000, 
-0.057551613457792555, 0.009324194453825598, 0.00010729877656768157, 3295899000000, 
-0.027751916462720044, -0.00033078164503202924, 0.00020524562356190294, 3295904000000, 
-0.06547097736709033, 0.026177813421836994, 0.00011316901503162051, 3295909000000, 
-0.035493345588386196, -0.005680484273698361, -0.00013194863765157776, 3295914000000, 
-0.07129285443745814, -0.03548465320760611, 0.00020681098688524324, 3295919000000, 
-0.07552631639419692, -0.02295566016463002, -0.00012432832375183894, 3295924000000, 
-0.07076804866952163, -0.02651381101971004, 0.00014381717394751508, 3295929000000, 
-0.03787068880682244, 0.006597407090240074, 7.642785077490714e-05, 3295934000000, 
-0.04770862293167, 0.012914085429437797, -0.00010303434665692417, 3295939000000, 
-0.05771647198368542, 0.012461586457230488, 0.0001398023798188834, 3295944000000, 
-0.03829503096799938, -0.004065021166766788, -0.0005076865319996566, 3295949000000, 
-0.05676117540833145, -0.003258574726913587, -0.0002539775568525728, 3295954000000, 
-0.055592473145980696, 0.024701630538368536, 0.00017271662800207792, 3295959000000, 
-0.08633837505243827, -0.04097354368664662, -6.223350038998158e-05, 3295964000000, 
-0.04072415472462172, -0.017069128293114768, -0.000157422688951528, 3295969000000, 
-0.06305030615326408, 0.004070798227527344, 7.92048485108866e-05, 3295974000000, 
-0.06174587125617937, 0.04361058853933496, -4.40335001220187e-05, 3295979000000, 
-0.07255415673400725, 0.006465479083695859, -0.0002208403085589619, 3295984000000, 
-0.06194506232580569, 0.005523541174236725, 0.0001731980077677709, 3295989000000, 
-0.08064981596915233, 0.0029062811930281136, 0.00012176344231369926, 3295994000000, 
-0.0903075996338466, -0.030182587733845457, -0.0002628596988067698, 3295999000000, 
-0.07898260045102747, 0.000725734376983098, 8.597733207893998e-05, 3296004000000, 
-0.08425147254999807, -0.006443786465705765, -9.716008971164168e-05, 3296009000000, 
-0.02875451120948571, 0.013180675036376977, 0.00027418380240992263, 3296014000000, 
-0.08553275442016908, -0.007499561102511694, 0.0004091429138879356, 3296019000000, 
-0.06068585167161734, -0.024800469360205885, -0.0001668579308254721, 3296024000000, 
-0.03799540894908514, -0.008453959156764132, 0.00032336948936812285, 3296029000000, 
-0.05351099271653834, -0.022040053274348288, 9.023851347336926e-05, 3296034000000, 
-0.056588666797870786, 0.00462933380861185, -7.045877419754419e-05, 3296039000000, 
-0.06251666747142284, -0.018008459469373496, 0.0002638067792518198, 3296044000000, 
-0.03752873749725472, 0.005918981183574561, -9.80700892075713e-05, 3296049000000, 
-0.03948225066930906, -0.003186855386521294, -3.122762610662278e-05, 3296054000000, 
-0.06417254062233786, 0.015256240129614334, -0.00038292203671717157, 3296059000000, 
-0.06606464476654428, 0.009289013092964543, 0.00031173314631737203, 3296064000000, 
-0.03956020369866812, 0.02723903408079687, -0.0002238806079602787, 3296069000000, 
-0.0699146195446004, 0.009576187289987582, -0.00012389156556028957, 3296074000000, 
-0.07585233338102877, 0.020859582600906874, 5.422680184421984e-05, 3296079000000, 
-0.06231660599738616, 0.029479331945549133, -0.00015739246094101153, 3296084000000, 
-0.05399273504912923, 0.021979218409812262, -0.00015529431440029347, 3296089000000, 
-0.044004413379278476, 0.022858914243590774, 0.0005105957791620519, 3296094000000, 
-0.030221276172997552, 0.004052701032062011, 0.0002894305773503931, 3296099000000, 
-0.033476481881155346, 0.00025785559288357197, 0.0002631080208279625, 3296104000000, 
-0.03279421938635414, 0.02909542435184053, -0.00012973871216723578, 3296109000000, 
-0.03538717308112239, 0.0037314705916932905, 0.00032418582469633574, 3296114000000, 
-0.043362712182686766, -0.00821958006003556, 0.00016891464395586608, 3296119000000, 
-0.08140281557608581, 0.0339615142488077, -4.974557306362004e-05, 3296124000000, 
-0.061950803327450496, -0.02074867506501395, -8.479158271569711e-05, 3296129000000, 
-0.048183549246113025, 0.02092487201908111, -0.00019336326760275086, 3296134000000, 
-0.026578629607941592, 0.01939586290941679, -8.681011116903729e-06, 3296139000000, 
-0.028606567179559096, -0.006771855628594364, -0.00014087955701620394, 3296144000000, 
-0.03350066425223146, -0.023790048583156084, 5.9665979979836895e-05, 3296149000000, 
-0.06385733876730203, -0.012298444275382686, -0.00013654063204611062, 3296154000000, 
-0.0485222474016543, 0.008853776212525935, -0.0002461368886554504, 3296159000000, 
-0.06016489582526155, -0.017622507980399313, 0.00011388111586724951, 3296164000000, 
-0.06825666058825772, 0.006166050372516629, 7.203142512157574e-06, 3296169000000, 
-0.05891899100319047, -0.012026493219607654, -0.00041292269438657003, 3296174000000, 
-0.05432888373572266, 0.01031361975375825, 4.336929597459753e-05, 3296179000000, 
-0.02098747102806807, -0.005648516154910524, -7.463846046242576e-05, 3296184000000, 
-0.043018273259695955, 0.02285479321309775, 0.00013195900328683233, 3296189000000, 
-0.05664059677533025, 0.007166980136543956, -0.00023905858754214945, 3296194000000, 
-0.03660278484063272, 0.02091474223654906, 0.00018209106314647332, 3296199000000, 
-0.04134628375994733, 0.0027641021381033066, -8.297817553248589e-05, 3296204000000, 
-0.06656174686644238, -0.008658758819163361, 0.0001554362172517964, 3296209000000, 
-0.06669468325789682, -0.01140083663961955, -0.00015041847996788795, 3296214000000, 
-0.06484957919606234, -0.013407182977221179, -4.927792549473921e-05, 3296219000000, 
-0.025304821840105386, 0.005475600230898591, -6.632265432284484e-05, 3296224000000, 
-0.056572331907179266, 0.011575845949245454, 9.598539403703466e-05, 3296229000000, 
-0.048445796944714466, 0.010779337870713177, 0.00011304539723219817, 3296234000000, 
-0.05334164716907209, -5.538181114329811e-05, -0.0002653540017566753, 3296239000000, 
-0.05460365486420512, 0.023987559531008375, 0.0001399600689546462, 3296244000000, 
-0.04170782349492769, -0.010929464201998704, -8.18794101210691e-05, 3296249000000, 
-0.04665994731296145, 0.02011971936402288, 0.00011667615418713048, 3296254000000, 
-0.04407726800910553, 0.002233169467817443, 4.359318382483858e-05, 3296259000000, 
-0.0601979835171784, -0.020824869982944628, 9.0897569056002e-05, 3296264000000, 
-0.0648536163883958, 0.0010132709973590703, 0.00031005557349350854, 3296269000000, 
-0.053755397182073825, 0.01979064815789206, -3.434056935247408e-05, 3296274000000, 
-0.05562019629398225, 0.035964737171217585, -0.00011622152838589272, 3296279000000, 
-0.066470119110367, 0.00424494693138628, -0.00012000337962442449, 3296284000000, 
-0.04774673897447195, -0.006739145809474917, -6.447042229574874e-05, 3296289000000, 
-0.0572694428974654, 0.007043229498687832, 0.00010885050619174088, 3296294000000, 
-0.05808064227791151, 0.01788209892734132, 9.031047545020787e-05, 3296299000000, 
-0.06529346105918726, -0.0029820472063100084, 0.00021463068284873456, 3296304000000, 
-0.04974285279584574, 0.003985810799570555, -1.2159871847640455e-05, 3296309000000, 
-0.03807836168219685, -0.01618513365334259, 0.00039669829512038057, 3296314000000, 
-0.0732945070327958, 0.005807796582922391, -1.0874263625458246e-05, 3296319000000, 
-0.04863209145647281, 0.03130720170920239, -0.0003418690642315857, 3296324000000, 
-0.06869200673252138, 0.00222413733431533, 4.637269224251587e-05, 3296329000000, 
-0.07272923507601045, -0.025665205671125884, -0.00010372092181719097, 3296334000000, 
-0.04586061883704212, -0.006346326280977612, 0.00013164979497121514, 3296339000000, 
-0.06366692983737382, -0.00018027273212186615, -3.7463549385080516e-05, 3296344000000, 
-0.03661447871901223, -0.014727500027377303, -0.00019046461315091461, 3296349000000, 
-0.06244176302842508, 0.013935445077064047, 0.00013271056628273183, 3296354000000, 
-0.07411825554976906, -0.017381423706403155, -3.6394241328452247e-06, 3296359000000, 
-0.05884422404194752, -0.012915717188793486, -6.87013816593245e-05, 3296364000000, 
-0.04984829129674214, -0.005705423051816963, -0.00017469843653831376, 3296369000000, 
-0.06488247537188671, -0.02478269006724367, -9.091555658929612e-05, 3296374000000, 
-0.041806975612198725, 0.0035845658238225983, 0.00017124954476219575, 3296379000000, 
-0.038327190178455525, 0.015700948887020203, 2.6372096271369668e-05, 3296384000000, 
-0.09415828241482463, 0.016179757099855894, 3.92533242013523e-05, 3296389000000, 
-0.048673902228180764, -0.008521824663744605, -0.00011359449991282718, 3296394000000, 
-0.05387152201995515, -0.0059340952524626536, -5.5713002460977196e-05, 3296399000000, 
-0.03788471168593048, 0.012380971396732237, 4.382295794942392e-05, 3296404000000, 
-0.07215985135238595, 0.0060717292818263605, 0.0002017070341820013, 3296409000000, 
-0.04763342066669422, 0.02155557120559434, 0.000318404956984961, 3296414000000, 
-0.06723333225195467, -0.014624889357225085, -0.000456880155393038, 3296419000000, 
-0.06293929374939497, -0.006409305669477455, -0.00026636014266635826, 3296424000000, 
-0.07655890504914369, -0.035753564868884265, 0.0002666467048436127, 3296429000000, 
-0.0480256470997078, 0.01238573381247174, -0.00010348764621911951, 3296434000000, 
-0.08354121622246455, -0.010188704412672103, 2.7001616622029046e-05, 3296439000000, 
-0.09052079531349241, -0.0054146830742067865, -6.801776526164532e-05, 3296444000000, 
-0.04004091972400694, -0.007011161984993961, 2.4038850467148802e-05, 3296449000000, 
-0.0779303287985672, -0.029683597472866925, 1.4106784381902483e-05, 3296454000000, 
-0.05245161605637322, -0.0005242369001591252, 0.00028736149005796483, 3296459000000, 
-0.07352314723712831, -0.009863503175281535, 0.00024033174979442735, 3296464000000, 
-0.046359909442814734, 0.004832595585091318, 0.00029365579886051326, 3296469000000, 
-0.043658941323601805, 0.03405169152158343, 4.277510210125295e-05, 3296474000000, 
-0.046619826713661314, 0.012342106587667457, 0.0002848389907129555, 3296479000000, 
-0.030510974698286338, 0.0125369736982364, -0.00011458249928300624, 3296484000000, 
-0.046663977111001884, -0.013830709257827582, -0.00023976668905706893, 3296489000000, 
-0.0585291671369557, 0.020871119775597427, 0.0002309932567384502, 3296494000000, 
-0.03826714816505282, -0.005290772768886528, 0.00023903785843364255, 3296499000000, 
-0.05701443849487744, -0.021190952316245838, -0.00024052186709199128, 3296504000000, 
-0.052669871668484775, -0.0129039365247109, -0.00016442260481299624, 3296509000000, 
-0.07326407319588599, -0.005705293220321122, -2.4949410850125566e-05, 3296514000000, 
-0.07206310087833717, -0.0212140319071085, -0.00011472178618298845, 3296519000000, 
-0.034626379443004465, 0.01399916828526991, 7.181778094889674e-05, 3296524000000, 
-0.06115853904444338, 0.01336213358635113, -0.00023470735241857456, 3296529000000, 
-0.08184062283697666, 0.005918066504644142, 0.0001755301066547611, 3296534000000, 
-0.07301345679731752, -0.00350710904777234, -1.1967731900887387e-05, 3296539000000, 
-0.06986139540747759, 0.04024776410137161, 0.00020256344486991974, 3296544000000, 
-0.0380261335544792, -0.004991188806929874, -5.224617810918108e-05, 3296549000000, 
-0.06459485729640901, 0.019926545580757887, -3.354492401492622e-05, 3296554000000, 
-0.04550496234288108, -0.0063855024708263305, 8.040709684882996e-05, 3296559000000, 
-0.0511918785509893, 0.007475393856517994, 0.00014738022178819357, 3296564000000, 
-0.06521584783527717, 0.007740013644030073, -0.0002831068393391618, 3296569000000, 
-0.0525948889015198, -0.007208134252023293, -0.00030837092309800627, 3296574000000, 
-0.045595572174114515, -0.01231726251758719, 0.00025279513630572115, 3296579000000, 
-0.050590006699996, 0.01724913576392548, 9.433635214462231e-05, 3296584000000, 
-0.07147407014923574, -0.011402263738062458, 0.00012164265137812593, 3296589000000, 
-0.03798793257775093, 0.03577951120598754, -0.00017578114829544625, 3296594000000, 
-0.03185310138313025, 0.002514675053249967, -0.00015255002996686796, 3296599000000, 
-0.05304607287312491, 0.013658539160323287, -0.00031760382357810986, 3296604000000, 
-0.05456613250980975, 0.008788471877441245, 0.00012377628375453883, 3296609000000, 
-0.05580962425812888, 0.018025464269952985, 0.00024304609752221908, 3296614000000, 
-0.06621658793077638, 0.0009137502887210393, 7.648225671509493e-05, 3296619000000, 
-0.04623230564233231, -0.009214137394214778, -0.00027375889760072414, 3296624000000, 
-0.04540383709030184, -0.0073219785734395405, 0.0002010057207536317, 3296629000000, 
-0.04820976875428983, 0.01580525598657323, 0.0002458579125777975, 3296634000000, 
-0.030668214341142724, -0.015426777620447717, -0.00019029228119445805, 3296639000000, 
-0.05002011461439694, 0.005990701309763729, 3.0266424531392338e-05, 3296644000000, 
-0.07543306444207254, 0.028171444526280006, 2.9640988254693632e-05, 3296649000000, 
-0.09467551905270974, 0.0044741928613197795, 6.34917535603224e-06, 3296654000000, 
-0.05642543393182321, 0.00618199739664699, -0.00037076169305659486, 3296659000000, 
-0.021643717360664692, 0.002695908314603951, 4.437467968760257e-05, 3296664000000, 
-0.0529944850752448, -0.002708113112098089, -3.325699066734877e-05, 3296669000000, 
-0.05387008737714313, -0.021641592491009335, 0.00016200855140505307, 3296674000000, 
-0.05260550409203771, 0.017339907486357383, 0.0002107607099033435, 3296679000000, 
-0.05417862696085244, 0.019468000810200895, -0.00023897804384299728, 3296684000000, 
-0.0674860040216594, -0.007506967619541939, 0.0002519519279179088, 3296689000000, 
-0.048576237800186085, 0.0024286757706403345, -0.00022397374707955559, 3296694000000, 
-0.02640573119917646, -0.0014630453426765545, 1.8682560864586367e-05, 3296699000000, 
-0.06676196460755535, -0.03237608422048671, -0.0001702720521705425, 3296704000000, 
-0.045952759119628456, -0.015752077911403047, -0.00019128900597147863, 3296709000000, 
-0.052314077683390386, -0.005511611638329353, -7.497303977668885e-05, 3296714000000, 
-0.023007734697420505, -0.00017329455969173832, -0.00018088080011958828, 3296719000000, 
-0.061830299322701954, -0.004655800617934233, -7.716752341371061e-05, 3296724000000, 
-0.04494712791114022, -0.03211817178109467, 9.491094802923769e-06, 3296729000000, 
-0.04484326479930226, 0.010011679478920834, 0.00028603525235774605, 3296734000000, 
-0.061591455266137574, -0.007304273710002248, -0.00011771975584186832, 3296739000000, 
-0.03172971006764977, 0.016887011854877575, -0.0002336163875640682, 3296744000000, 
-0.05968455060323691, 0.005941196259600573, -6.963131006000223e-05, 3296749000000, 
-0.04827799774129955, -0.015765680375017178, -0.00010248492943171131, 3296754000000, 
-0.03796069825243853, 0.02994009560565953, 7.608829606860521e-05, 3296759000000, 
-0.034811344753912996, -0.026967909010080057, 0.000369304085443391, 3296764000000, 
-0.06411669811090019, -0.0024889177410232603, -0.0003304391526851756, 3296769000000, 
-0.07058503823248716, -0.007006021282366928, -0.00014981357224297438, 3296774000000, 
-0.067360304768816, -0.010804733528743463, -0.00011944653120833548, 3296779000000, 
-0.05291133011368763, -0.022933492120401223, -0.00010331256398799411, 3296784000000, 
-0.031780767979062305, -0.0005620323201078175, 9.567005574015792e-05, 3296789000000, 
-0.056088004899632976, -0.018142937081458425, 5.439595831285602e-05, 3296794000000, 
-0.03747039577201293, 0.008532812342643675, -0.00021654990136684658, 3296799000000, 
-0.052316017840735626, -0.025348714837235036, 0.00011037315381901506, 3296804000000, 
-0.06679047857239322, 0.018052654213160733, 5.9640517593779595e-05, 3296809000000, 
-0.07272951203538582, 0.028615091969306092, -0.0003540169585828462, 3296814000000, 
-0.06505103465983296, 0.008943914048332436, 2.9823018829993312e-05, 3296819000000, 
-0.02579988101761326, -0.016403134804945593, 0.00010079528477347085, 3296824000000, 
-0.03918104087104525, -0.01209610563115437, 7.256030933945923e-06, 3296829000000, 
-0.06106823324163922, -0.010925319340000805, -0.00019095191375389457, 3296834000000, 
-0.05955960342609117, 0.03780374050863578, -0.0003196414113412352, 3296839000000, 
-0.08217999753001115, 0.0031856785836002857, 0.0002911888585313823, 3296844000000, 
-0.03767539336860504, -0.0035210720067818924, 9.038536537430116e-06, 3296849000000, 
-0.05300145513886078, -0.00826326769346943, -0.00017624571932989974, 3296854000000, 
-0.09324311986716743, 0.008591372458328144, -0.00018926291822836565, 3296859000000, 
-0.06992946553012436, -0.021663754867539815, 0.00027825721935671244, 3296864000000, 
-0.05864558116095378, -0.02612730580665494, -0.00018267424154212326, 3296869000000, 
-0.055589865137125494, 0.00859175527018455, 3.644566133860071e-05, 3296874000000, 
-0.06636847614439462, 0.0033589378960269542, -0.00013861967481075112, 3296879000000, 
-0.0412327059890229, 0.019952063535011496, -0.00022045485952590927, 3296884000000, 
-0.04395888782940747, -0.0018697307571377358, -5.787429127815974e-05, 3296889000000, 
-0.06508674756830636, 0.027452574122644267, 0.00025928435615896233, 3296894000000, 
-0.0577678354265312, -0.018590772643887664, -0.00020742118878288194, 3296899000000, 
-0.026585179025890155, 0.018758348829145247, -6.3001298504668444e-06, 3296904000000, 
-0.06081512833106684, 0.010039902044694968, -0.0002461456595473464, 3296909000000, 
-0.059292183080566746, -0.0005160349908688503, -3.9963616566713473e-05, 3296914000000, 
-0.0769757476234866, -0.02265807592950504, 8.21352695749917e-06, 3296919000000, 
-0.062454182575869426, -0.012954196408024988, 0.0002553510108349153, 3296924000000, 
-0.07413903215930631, -0.01817535252676099, 0.00018039134678990814, 3296929000000, 
-0.042879903168270436, -0.006001022046808816, -7.513418543067134e-05, 3296934000000, 
-0.0514806949408186, 0.011359116439840073, 0.00011503576547683414, 3296939000000, 
-0.05943325790496552, 0.051190476410492625, -7.278410278532287e-05, 3296944000000, 
-0.03497192976483517, -0.019947564753530215, -0.00010455388930705129, 3296949000000, 
-0.049852957110867485, 0.007105513482581408, 0.00010206979885820544, 3296954000000, 
-0.06364116932048894, 0.003073032931448696, 0.0002683218337280613, 3296959000000, 
-0.0784847680436099, -0.0004304388398359254, -0.00021805373201073518, 3296964000000, 
-0.07239014605112107, -0.009488041858341047, -0.0002786212993499969, 3296969000000, 
-0.05797084833744265, 0.008590133546968024, -0.00013023813306650256, 3296974000000, 
-0.058209451693184554, -0.014206275971040176, -0.00024944559831950364, 3296979000000, 
-0.05596965582370714, -0.019475038016400614, 0.00027589568111815224, 3296984000000, 
-0.07016282223072436, -0.03808155809663031, 0.00037897862251877945, 3296989000000, 
-0.10431048345044047, 0.003989170313381109, 0.00022935506263753322, 3296994000000, 
-0.055804274000732776, -0.014691071112704769, -0.00022221021067565398, 3296999000000, 
-0.03605972630336324, -0.005836213335568165, -0.00017183060834225834, 3297004000000, 
-0.039252890693261704, -0.011692974430516222, -2.593507385946134e-05, 3297009000000, 
-0.03204724497195499, 0.00871654016910192, 0.00023513399039819482, 3297014000000, 
-0.043513614531684036, -0.00035580286781424354, -0.00039753282278968716, 3297019000000, 
-0.05438370279051134, -0.023580548820541072, 5.278091898973658e-05, 3297024000000, 
-0.06026611665526224, 0.022169712053148497, -4.102702091713694e-05, 3297029000000, 
-0.077165401109551, -0.015096385112168374, -0.00011291775663379398, 3297034000000, 
-0.10094714449443817, 0.002244434914347325, 0.0002707600314010053, 3297039000000, 
-0.10139617910772813, 0.0029796272377452366, -9.987631257066075e-05, 3297044000000, 
-0.04713099132340978, -0.022203059099815015, 0.0001036411910282187, 3297049000000, 
-0.08340846511972522, 0.021183620238394298, 8.414043262380374e-05, 3297054000000, 
-0.05697069821181298, -0.026205683546825204, 0.0001528256079951946, 3297059000000, 
-0.02272558227346952, 0.00616856705768666, 7.046456548039631e-05, 3297064000000, 
-0.05768739123235996, -0.01366192469451711, 0.00031439585357996504, 3297069000000, 
-0.0629439826749971, 0.004936752148000944, -0.000327940153616935, 3297074000000, 
-0.029296699717332647, 0.010921513107046001, -4.2870825739721724e-05, 3297079000000, 
-0.048200531318418574, 0.01511522870951186, -0.00025333434218802056, 3297084000000, 
-0.05983873257765025, -0.002345125920375807, 0.00019001112996091434, 3297089000000, 
-0.0935008423275766, 0.02245123223206154, -5.856382406695573e-06, 3297094000000, 
-0.06341076240132525, -0.008445721058068893, 0.00034230467162336823, 3297099000000, 
-0.03407100827136745, 0.023321685748563532, 0.00028840470828858916, 3297104000000, 
-0.06435778525453234, 0.019935651099672477, 8.945472469804559e-05, 3297109000000, 
-0.04530720147119655, 0.027596278895555822, 0.00011103789527503679, 3297114000000, 
-0.07543222266568686, 0.007611760914493413, 0.00022982490597837948, 3297119000000, 
-0.04808322820588689, 0.020959407505613176, -0.00010563298050770414, 3297124000000, 
-0.03308447900003836, -0.019691163888727273, 0.00021179769631259152, 3297129000000, 
-0.057717047207634486, -0.0006156957424581401, 0.00041177760726749497, 3297134000000, 
-0.07184713745587729, 0.012117771898961228, 6.825665843092432e-05, 3297139000000, 
-0.03160466685110716, -0.022344486392376333, -1.6393414785769171e-06, 3297144000000, 
-0.04368838099636682, -0.009857129234631636, -0.0002060696680270801, 3297149000000, 
-0.03299765176933492, 0.019447551739758748, -3.468485707166019e-05, 3297154000000, 
-0.0825505982058907, -0.013535157375826466, -0.0001989768167869482, 3297159000000, 
-0.07310002989180092, 0.030708559026308792, 0.0002516836151297047, 3297164000000, 
-0.0623410201888998, 0.008749322185305743, 0.00014801343243639066, 3297169000000, 
-0.06928657235996205, -0.04936481805550601, -0.00020934003660298992, 3297174000000, 
-0.07585358221200683, -0.008388005443657805, -1.5238543043751479e-05, 3297179000000, 
-0.06346882898909062, -0.02260614068484252, 7.164631938442128e-05, 3297184000000, 
-0.037213841788100305, 0.012574681319373239, 8.539223549959983e-05, 3297189000000, 
-0.074695073965683, -0.014458218029508264, -0.0002835824681972134, 3297194000000, 
-0.03411402643611028, -0.03548691525947009, -5.1385497294452555e-05, 3297199000000, 
-0.07786008578415393, 0.01658240528121669, -0.00027553485345640523, 3297204000000, 
-0.03332314446176857, 0.022208070675789483, -0.00020692943050060593, 3297209000000, 
-0.06039523630061062, 0.012820089796329013, 0.0004505328703372838, 3297214000000, 
-0.06959844590158497, 0.009406713073774435, 0.00013573251365782814, 3297219000000, 
-0.04764500214779648, 0.02285169252270307, 0.00012768991466966838, 3297224000000, 
-0.0480099114335603, 0.02664323608979074, 5.075582637531147e-05, 3297229000000, 
-0.05880216539498409, 0.004934047720994268, -6.896386544920552e-05, 3297234000000, 
-0.049118997489654634, 0.01191232093177474, 4.983761921660686e-05, 3297239000000, 
-0.0535086543502071, -0.005331526379905499, 0.0003620898916819201, 3297244000000, 
-0.03740479652434291, 0.012222050842865002, 0.00014434502453304756, 3297249000000, 
-0.05162239365812479, 0.010395763465162893, 0.00013087188167266203, 3297254000000, 
-0.05874112416867853, -0.007357376434949006, -5.22128384491615e-05, 3297259000000, 
-0.05735721286178627, -0.012312298530799619, 7.777590475170833e-05, 3297264000000, 
-0.0781038072114637, -0.03639324900178135, -0.00012796376644284583, 3297269000000, 
-0.057596212632683545, -0.0017093010852801442, -0.00025329270407756373, 3297274000000, 
-0.05513197601274692, -0.03801656204040473, 0.0004372042589736337, 3297279000000, 
-0.0634510593733045, -0.020058850405627597, -0.0002738160081526472, 3297284000000, 
-0.04767485671421152, 0.013975658562937568, 1.2745744867942575e-05, 3297289000000, 
-0.0576567618058657, -0.007953981033353933, -0.0001611499851057288, 3297294000000, 
-0.0678560995509683, 0.01798853318630713, 0.00019737993492756364, 3297299000000, 
-0.04571295308219946, 0.02950958324700338, -6.245790673051879e-06, 3297304000000, 
-0.03083007913711595, 0.029413474783251254, 0.00019167347600210528, 3297309000000, 
-0.04516893507531383, 0.01061507450484193, 0.00014361967956016592, 3297314000000, 
-0.05253245946543443, 0.0076826524954012555, 0.00021662293453475937, 3297319000000, 
-0.04602846738776408, 0.007939671246734491, -0.000142866136229723, 3297324000000, 
-0.0690764279094216, 0.014588193142170783, -5.4637188521894195e-06, 3297329000000, 
-0.036524717157854936, -0.017445853245399955, -0.000452297690150631, 3297334000000, 
-0.07636773841815533, 0.01077002368487673, 2.7587255857838997e-05, 3297339000000, 
-0.05751510360166801, -0.008682836771711661, 7.151556201992059e-05, 3297344000000, 
-0.06734632529901007, -0.0227257388536304, -0.00025510305414440176, 3297349000000, 
-0.06283211046858525, -0.02559975680236081, 0.00012195175337481233, 3297354000000, 
-0.07814222133215268, 0.015590249588696023, -0.0001227135228501112, 3297359000000, 
-0.058600572774188384, 0.0035922241008029153, -0.00026916016382916926, 3297364000000, 
-0.05920887039596827, 0.006385444860479922, -0.0001829764615507456, 3297369000000, 
-0.05983756488948763, -0.021263130810077007, -4.667920283969338e-05, 3297374000000, 
-0.042404383541854586, 0.003108354091125082, -0.00032535604010190596, 3297379000000, 
-0.058702291870711285, -0.024198988960118677, -2.6781403008674833e-05, 3297384000000, 
-0.03560410781995742, -0.04387290697985124, -5.7453021533626065e-05, 3297389000000, 
-0.04524964964327923, -0.024912716999830088, -8.012679765075189e-06, 3297394000000, 
-0.043131006600919446, -0.0003876166151584419, 0.0002784702538986157, 3297399000000, 
-0.0680456153657103, 0.012452503697830688, 0.00017481550829478814, 3297404000000, 
-0.06386442702937505, 0.02344882216255328, 4.094783642623578e-05, 3297409000000, 
-0.0728632561690632, 0.00037053198082053764, 0.0003347190847834879, 3297414000000, 
-0.031225244287992452, 0.00296633934314021, -9.983198227755321e-05, 3297419000000, 
-0.03855966203651332, -0.0019458332219305986, -0.00010178577464480978, 3297424000000, 
-0.0594705200044877, 0.013837058521309759, 0.000155821052489872, 3297429000000, 
-0.05651072234511751, -0.004783073185531355, -0.0001396196127974515, 3297434000000, 
-0.07121676645808073, -0.01418062848800987, 0.00021751266039252623, 3297439000000, 
-0.026924741621445474, -0.0208004894562387, 0.0003025986593705865, 3297444000000, 
-0.06685999738585656, -0.02635523883488222, -0.0002551559337670767, 3297449000000, 
-0.054124751004872365, -0.03754272366907424, 0.0002625177848800881, 3297454000000, 
-0.046233695733383734, -0.009365608848719884, 0.00010334644021700472, 3297459000000, 
-0.030331669995519034, 0.03496550513930359, 7.236240483279727e-05, 3297464000000, 
-0.08982308056025576, -0.015666873951006917, -0.0002450103542777938, 3297469000000, 
-0.024919685710842403, -0.001829168846609203, -0.00011319726135800573, 3297474000000, 
-0.05658697644126213, 0.002953239271076087, 0.00012650557590588137, 3297479000000, 
-0.07545699555435874, -0.017627843374373536, -0.00017439566628808564, 3297484000000, 
-0.05352021801792226, 0.006363329932198538, -0.00016569645505523436, 3297489000000, 
-0.033472619294056434, -0.02145273395448208, 0.00047646171881928623, 3297494000000, 
-0.0733394268960926, 0.013105159243134094, 0.0003799633532563933, 3297499000000, 
-0.05799140287399717, -0.00011029211789447923, 1.0735307110058256e-05, 3297504000000, 
-0.038508522119136634, 0.0045326230512211475, -0.00015569397675454128, 3297509000000, 
-0.0479954641385601, -0.004839384920448867, 1.952493350636283e-05, 3297514000000, 
-0.03258300631995281, -0.0031637481987525527, 7.014854594470541e-05, 3297519000000, 
-0.054673624391129286, -0.007011578519842559, -6.995372011524394e-05, 3297524000000, 
-0.07058082516985735, -0.00947108196226012, -1.0878456907454913e-05, 3297529000000, 
-0.06428366088650342, 0.005215259812005234, -0.0002796828863660673, 3297534000000, 
-0.054970436064843115, -0.004133073540754047, -0.00018276573538076536, 3297539000000, 
-0.05249878401035581, 0.05391144058443686, 0.00013902543197782412, 3297544000000, 
-0.06967539812314877, 0.0004888272077902152, -0.0001977050866917223, 3297549000000, 
-0.058388212473212645, -0.0031227911831340884, 8.003359715943283e-05, 3297554000000, 
-0.06888375316382868, 0.02298893993825471, 0.00019157523088013357, 3297559000000, 
-0.04695026026188509, 0.00694521876878211, 0.00015175394048338154, 3297564000000, 
-0.046222203396053395, -0.01548047280446378, 0.00019779087013284155, 3297569000000, 
-0.06985984440063824, -0.013947332031431444, 0.0002572410327459875, 3297574000000, 
-0.037756272210819584, -0.02752710942900715, 6.695188739496131e-05, 3297579000000, 
-0.054454786498072505, -0.004763907548707984, -0.00012426454715603398, 3297584000000, 
-0.07267311137555188, -0.01710328822569032, -0.0002033171987152859, 3297589000000, 
-0.07321781310611203, -0.012240036847945453, 0.0005134253430413204, 3297594000000, 
-0.03271643163108286, -0.008920288827280189, -0.00029657378172938983, 3297599000000, 
-0.0840321272316697, -0.014496710679316713, 6.6277649202936995e-06, 3297604000000, 
-0.07027110369603484, 0.0034356486032636993, 0.00014112607660216102, 3297609000000, 
-0.04472215695795443, 0.007416704283911479, 0.000179202213076585, 3297614000000, 
-0.05502251698470895, 0.02309636318822942, 5.008189586967425e-05, 3297619000000, 
-0.04832099506031869, -0.003193772242168648, -0.0001348692380820817, 3297624000000, 
-0.04976195641774027, 0.009810509222026757, -8.518174103438083e-06, 3297629000000, 
-0.10815951891537849, -0.032339283029226874, -0.00038081102750402325, 3297634000000, 
-0.09057530856154711, 0.004321769520584573, 2.968803577181439e-05, 3297639000000, 
-0.02242610581083905, 0.001523933159525165, 3.924717697014515e-05, 3297644000000, 
-0.03471832018817157, -0.008425969691973723, 0.00022788415070784288, 3297649000000, 
-0.07937851007201929, 0.009000936607652766, 0.0003289818878010124, 3297654000000, 
-0.08261660368304741, 0.006483958681782145, 0.00031218667404669487, 3297659000000, 
-0.04415403874567722, 0.01921315551543183, -0.00015035326140295296, 3297664000000, 
-0.035977459298749036, 0.010206621265214395, -1.7383069612324543e-06, 3297669000000, 
-0.03316117375855204, -0.02488860329477961, -0.0002576124342094536, 3297674000000, 
-0.0542614464713666, -0.013353952745345227, -1.394806715115652e-05, 3297679000000, 
-0.0849177419622273, 0.00016110644575081305, -0.00010094835267977732, 3297684000000, 
-0.04158102844481124, -0.003782192496092354, 0.00039213389247190234, 3297689000000, 
-0.026168450180857, -0.02354553132518488, -0.00025381553506199293, 3297694000000, 
-0.03812976109771071, -0.010140667139080704, 0.00034045062216251916, 3297699000000, 
-0.05923734888927047, -0.0007731519804783816, -0.0001549915775333603, 3297704000000, 
-0.07839496759343309, -0.007147851816430445, -5.155407558517308e-05, 3297709000000, 
-0.06643254394058214, 0.017908405677923997, 0.00013116925286937276, 3297714000000, 
-0.02686113796371373, -0.011091883059525881, -0.0001754571718800728, 3297719000000, 
-0.042597729655711944, 0.0026045156939065077, -5.7430134941563515e-05, 3297724000000, 
-0.06807522849828833, 0.007117009088328383, -0.00010293413710662452, 3297729000000, 
-0.0647132261322376, -0.021984102548562107, -1.0067941819955518e-05, 3297734000000, 
-0.05544681784084744, 0.014157397516555245, -0.00032585872381728383, 3297739000000, 
-0.05669427264681396, 0.003659244869974374, -7.553911883095752e-05, 3297744000000, 
-0.07068340489962108, 0.0045740942881152035, 0.0004995014032962938, 3297749000000, 
-0.05347999432982064, -0.005842639790288422, 0.00019976763856039868, 3297754000000, 
-0.03820676244052715, -0.030137695182585432, 0.0005386423848053485, 3297759000000, 
-0.060062710930981145, 0.011348597454815491, 0.000282425018220775, 3297764000000, 
-0.0664174332510793, -0.013177729619820567, -0.0002559211585943994, 3297769000000, 
-0.04160635524141713, -0.031361519811969295, 4.375251151139223e-05, 3297774000000, 
-0.05159237769073602, 0.0034035103571177913, 0.00010184082743016545, 3297779000000, 
-0.07992674130182637, 0.011620004520620033, 0.0001449649804151991, 3297784000000, 
-0.06592977778609224, 0.004432188428714722, 0.0003101171739356818, 3297789000000, 
-0.04674347268597078, 0.0037678997050524903, -1.1402978701332095e-05, 3297794000000, 
-0.06173580779655257, 0.0032215003862417556, -8.971424977709395e-07, 3297799000000, 
-0.044769455192030155, 0.005284793701708121, 0.00016228786400376868, 3297804000000, 
-0.07339651264978114, 0.0033117728620255882, 0.0002816169037842824, 3297809000000, 
-0.07757791278880659, -0.004445070225589775, -0.00017274294682142143, 3297814000000, 
-0.0565448166715309, -0.005483501505115247, -7.144132384300899e-05, 3297819000000, 
-0.06443306287892353, 0.0027790665896613833, 0.0002474539906813195, 3297824000000, 
-0.06609776186316914, 0.018299764213063847, -2.22726805355404e-05, 3297829000000, 
-0.06092262576829763, -0.007990174347250065, -5.928883893058011e-05, 3297834000000, 
-0.04777277038220679, 0.002495721874567509, 0.00015628983472185985, 3297839000000, 
-0.05580357482346837, 0.010754941716019381, -0.00018460297677329212, 3297844000000, 
-0.08685166827306591, -0.014471240551005026, -0.00021516989457895602, 3297849000000, 
-0.05191360576321519, 0.008458486100886895, -0.00013730215449793534, 3297854000000, 
-0.02629981148025363, 0.003221880684041783, 0.00019919961308661064, 3297859000000, 
-0.057786003831507136, -0.013757352101926511, 6.380424637748507e-05, 3297864000000, 
-0.06561061616884978, 0.024665817764807328, -0.00012055465685494194, 3297869000000, 
-0.08139398317526944, 0.011485840780179, 0.0002543778590028913, 3297874000000, 
-0.05416588129857172, -0.002152514651566825, 5.388288382547512e-05, 3297879000000, 
-0.06584861320678172, -0.011807622023238658, -5.1229847281507914e-05, 3297884000000, 
-0.0828642640383275, -0.018075789547134586, 4.678914135144185e-05, 3297889000000, 
-0.048964240963337194, -0.009791007502167482, 0.00011138140328322834, 3297894000000, 
-0.04043383600278834, 0.003201309289043997, -3.2749544528360303e-05, 3297899000000, 
-0.046481082410400366, -0.012976513596144199, 9.380093078429362e-05, 3297904000000, 
-0.046876026466555885, -0.010488626543496134, -3.0953987021382594e-05, 3297909000000, 
-0.02411723274129118, 0.01979127923643935, -1.746154249949931e-05, 3297914000000, 
-0.053134996608282054, -0.02186350421507092, 9.443185267779781e-05, 3297919000000, 
-0.022835988133905256, 0.006154663439191304, -0.00025103000411841764, 3297924000000, 
-0.0359652814405161, -0.01066128473888458, -2.4700808280212693e-05, 3297929000000, 
-0.03181489247180702, 0.03070871209285903, -0.0002058089550852769, 3297934000000, 
-0.07520205481290963, -0.00572305879233268, 0.00013051195251357828, 3297939000000, 
-0.027251141131424857, 0.028526134011030817, 0.0002900879244371319, 3297944000000, 
-0.07388831010699792, -0.01577305629229571, -5.8077303469775554e-05, 3297949000000, 
-0.032690011069910825, -0.005091098202636298, -0.0001203977261558106, 3297954000000, 
-0.06972589045524943, 0.006969574843252665, 4.060840628409106e-05, 3297959000000, 
-0.06586524019801643, -0.014648216549787966, 6.104063345935753e-05, 3297964000000, 
-0.048709645062481044, -0.013585036920996631, 0.00012235952891251665, 3297969000000, 
-0.047305507698373515, 0.00120541601991694, -0.0005165538889052198, 3297974000000, 
-0.05543530853003482, -0.010028117534254366, 7.872446590459367e-05, 3297979000000, 
-0.058224788829166395, 0.016382953357919828, 0.0003639950982867496, 3297984000000, 
-0.06013974146870553, 0.03827801365141901, -3.1012252491529895e-05, 3297989000000, 
-0.07226681831774602, 0.01886963911558075, 0.0001341135070697013, 3297994000000, 
-0.06673146090177802, -0.027246131951311512, 1.6910611572130095e-05, 3297999000000, 
-0.07549727608429167, -0.010548530490456471, 8.677514346263361e-05, 3298004000000, 
-0.03957342147547509, 0.008352879887648839, -5.6696773708383014e-05, 3298009000000, 
-0.07166787670829426, -0.010329384010085887, -0.00015323487784587006, 3298014000000, 
-0.061212087024513855, -0.0035929312888705995, 0.00015566720606571602, 3298019000000, 
-0.04865701580148801, 0.017854098656546333, -0.00023875281787175769, 3298024000000, 
-0.05674525045183232, -0.003192967057904275, -0.00012156296844006475, 3298029000000, 
-0.05710074844617743, 0.008499833285556164, 2.705037181910339e-05, 3298034000000, 
-0.07408736390695132, 0.020761300960924756, -9.285514102164707e-06, 3298039000000, 
-0.049968375479927725, -0.029542237157828825, -0.00011603948229547816, 3298044000000, 
-0.0474882551540079, -0.0022503226283432432, -6.855170433071935e-05, 3298049000000, 
-0.07525924912698051, 0.02783868125351802, -6.38602961866858e-05, 3298054000000, 
-0.04789515739328867, 0.014338710145659609, 0.0004462355393359386, 3298059000000, 
-0.07175131874671767, -0.010059732521336509, -3.659965696259493e-05, 3298064000000, 
-0.06460301938952409, 0.011691648876987629, 7.507466539560051e-05, 3298069000000, 
-0.06310535466097746, 0.005421224411905907, 0.0002282759673029056, 3298074000000, 
-0.05392169624178027, -0.0013939227678557678, -0.00012727470040255638, 3298079000000, 
-0.06620602173141492, 0.0074712141313132184, -0.00021717248141670006, 3298084000000, 
-0.06667536042400188, -0.01587122372844907, -0.00024737605261223455, 3298089000000, 
-0.06400331475406235, -0.008790716637196706, 0.0001431085819753278, 3298094000000, 
-0.06821536243897974, -0.005938346850799668, 0.00023702864203224643, 3298099000000, 
-0.03758336527913487, -0.003685106794335059, -0.00022354461179692904, 3298104000000, 
-0.08087193779888224, 0.025876539607879927, 0.0001783801843363201, 3298109000000, 
-0.06678026596244345, 0.002036925407737155, -7.16094866074573e-05, 3298114000000, 
-0.0901587754726676, 0.022054116085187484, -6.370521940649155e-05, 3298119000000, 
-0.07646741037845242, -0.012026300936077726, -0.0001949878963435432, 3298124000000, 
-0.04645291036819798, -0.00603833956634909, 1.3154189497128106e-05, 3298129000000, 
-0.08315237484278225, 0.006002463554551733, -2.656961820536145e-05, 3298134000000, 
-0.08605149982745595, -0.010618671177970336, -0.00034159373659588645, 3298139000000, 
-0.06088305480532511, -0.004739923833729592, 0.00018336200939380568, 3298144000000, 
-0.07383487046189519, 0.012061255408124276, -2.7544477043253823e-05, 3298149000000, 
-0.024913995516622718, 0.004358766710977039, 0.00023381392619118468, 3298154000000, 
-0.057285083537818096, -0.009438699239523961, 1.655446956167525e-05, 3298159000000, 
-0.0863315530646089, 0.01901593262802832, -9.948321370044178e-05, 3298164000000, 
-0.07372905373011782, 0.00289411818275311, -0.00024151073178608633, 3298169000000, 
-0.036269043328586846, -0.008149041815376012, -0.00020139402078561043, 3298174000000, 
-0.06149740181056655, 0.006791459205617783, 0.00013886321938789089, 3298179000000, 
-0.06009481049233358, -0.0221266348943133, -0.0001709541201607327, 3298184000000, 
-0.047994397469294466, 0.013834123879254295, 0.0003678322755134986, 3298189000000, 
-0.052438757552411355, -0.019104682356180454, -8.97416968249983e-05, 3298194000000, 
-0.06586467324906928, 0.006687701268840409, -0.00010109790958151934, 3298199000000, 
-0.05934711021429608, 0.010677956754768273, -9.798211182328681e-05, 3298204000000, 
-0.06186752886261834, -0.006014214861488716, 5.0508274270400965e-05, 3298209000000, 
-0.04375676952017098, -0.03830707979325946, -5.6941611765408564e-05, 3298214000000, 
-0.03340318476475837, -0.0033559558247009498, -0.0001123955955572669, 3298219000000, 
-0.052756828495643796, -0.001105056065573128, 0.00021497274320030201, 3298224000000, 
-0.05828795221155705, -0.02774800744679851, 0.0001379706021633415, 3298229000000, 
-0.08978031852845442, -0.002255572378676552, -0.0002116525341031956, 3298234000000, 
-0.06801269861530151, 0.027851192554033677, -0.0002838133596136412, 3298239000000, 
-0.026673696039336982, -0.015500255173146233, -0.0002041740011380186, 3298244000000, 
-0.07494368003739164, -0.010194560497356033, -0.00014325875807026363, 3298249000000, 
-0.06422816199830834, 0.029737634030509226, 0.00014345297666695125, 3298254000000, 
-0.038340710620575105, 0.027938019044718904, 8.381003115419762e-05, 3298259000000, 
-0.049435257863668515, -0.016605366165007122, -0.0005270138075921419, 3298264000000, 
-0.032586856275203954, 0.029103203999206212, -0.00021496487914720165, 3298269000000, 
-0.06698415728081045, -0.003603221405861639, -0.0002007942022850463, 3298274000000, 
-0.061086327529036, -0.009322866591872285, 8.876158357326656e-06, 3298279000000, 
-0.04459286326667093, 0.001999095455140206, -3.708547865794928e-05, 3298284000000, 
-0.04667731556979637, 0.009731218480906433, 0.00015537460807285244, 3298289000000, 
-0.051678165985016254, -0.01237444973210866, 0.00023335788943992374, 3298294000000, 
-0.05872924957553782, -0.008514227094515506, -0.00023254564554535127, 3298299000000, 
-0.030919148091027204, -0.02726501802120242, 0.00012588042801050305, 3298304000000, 
-0.06255492544258816, 0.022841355959086176, 0.00025662584458241373, 3298309000000, 
-0.03104476237453226, 0.003306911463477527, 0.0002104155168223697, 3298314000000, 
-0.07767402628704748, -0.013524465821436566, 0.0001712919121903105, 3298319000000, 
-0.0524931479459974, 0.049908882605989746, 1.8886924257398906e-05, 3298324000000, 
-0.0400507803003752, 0.02572371601596641, 2.9285465029697114e-05, 3298329000000, 
-0.07085724600637011, 0.017891199201305753, 0.0002939578645032731, 3298334000000, 
-0.029646184666234813, 0.0006339283658108872, 8.292637316309889e-06, 3298339000000, 
-0.06160666032865958, 0.0006074142669248313, 4.7921267632021936e-05, 3298344000000, 
-0.02687614419385178, 0.028550326388667464, -0.00015366569949824227, 3298349000000, 
-0.04061863635795144, -0.009735668815290784, -4.01094651126902e-05, 3298354000000, 
-0.05588845506534283, -0.005881027780576186, 0.0003064352416334034, 3298359000000, 
-0.06432116344985433, 0.007760816516563423, 6.45203935305536e-05, 3298364000000, 
-0.04885170538283827, -0.008869154571028178, -0.00014990035312554715, 3298369000000, 
-0.021395585363914053, 0.005093978846951966, 8.658054927923625e-05, 3298374000000, 
-0.0462058424904045, -0.0062877326846518195, 0.0003972622239284164, 3298379000000, 
-0.04444499881852007, -0.000715369377422438, 0.00026401936490016563, 3298384000000, 
-0.0642626465541371, 0.006493351224929527, 3.28545866897187e-06, 3298389000000, 
-0.036345101644879765, -0.014431419259334811, -1.4670663042205111e-05, 3298394000000, 
-0.07273145093917273, 0.001050541444437257, 0.00025175653310869516, 3298399000000, 
-0.050088388300162046, -0.00017095095796045435, 0.0002095190999238305, 3298404000000, 
-0.046823216254858274, -0.002883134450698221, 0.0001415591765936382, 3298409000000, 
-0.04164648624605546, -0.020047204356003483, -0.00013645752085339626, 3298414000000, 
-0.06260683594258126, -0.00020645232988147845, 5.09106544473562e-05, 3298419000000, 
-0.06307889260009406, 0.009928341377662579, 0.00013837480829289716, 3298424000000, 
-0.04144191429149918, -0.027377296732448854, 0.00017643835158202197, 3298429000000, 
-0.06986820022647514, -0.006474497776674897, 8.855024476013703e-05, 3298434000000, 
-0.067505936714031, 0.010330708424808373, -7.22869134217368e-05, 3298439000000, 
-0.04900482289161857, -0.013803841831300501, 3.817819431118143e-05, 3298444000000, 
-0.08858872031246674, -0.016727522302223283, 7.664919824943899e-05, 3298449000000, 
-0.04630451817753141, 0.016672689949515276, -3.5386663151019405e-05, 3298454000000, 
-0.05089908667177816, -0.0209674484406447, 0.00037640394788480286, 3298459000000, 
-0.050933874610904026, -0.008327600792482518, -0.00017650139017626906, 3298464000000, 
-0.05369003326026651, 0.00466195640645189, -6.55762649624883e-05, 3298469000000, 
-0.07392967723521578, 0.009302628645500854, -0.00031562989238419925, 3298474000000, 
-0.038298248114106585, -0.01129002357828194, 0.00033110499598964366, 3298479000000, 
-0.03716632780595858, -0.009404883030403112, 6.342109653709042e-05, 3298484000000, 
-0.032064725304196726, 0.011701583008754518, -2.7407108517584974e-05, 3298489000000, 
-0.05121293856235145, -0.006702022858072789, -0.00012800201374686728, 3298494000000, 
-0.09142074044740445, 0.04546997040755934, 0.0002428693967082529, 3298499000000, 
-0.0270093718216641, -0.0032267620839373087, 0.00011014101083052612, 3298504000000, 
-0.030421406686960983, -0.006140500113657805, 0.00020399863568435942, 3298509000000, 
-0.04494902980659252, -0.027583955601102036, -9.04966281227788e-05, 3298514000000, 
-0.07343080965526214, 0.020223693828275387, -0.00013240008188871862, 3298519000000, 
-0.053561568835806185, 0.006007763392020962, 0.00034890540775743605, 3298524000000, 
-0.05919650964273402, -0.011749996258873515, 8.991600434901359e-05, 3298529000000, 
-0.04364661151401525, 0.022065742869984417, 0.00025655926100912144, 3298534000000, 
-0.06359276901071097, -0.010091964226702948, 0.0002954145383790672, 3298539000000, 
-0.05027438766466585, -0.009966226550802712, -0.00013109832695980085, 3298544000000, 
-0.05948870431769577, 0.000788706218531508, -4.55922413690765e-05, 3298549000000, 
-0.07337232752434969, -0.028933519547199714, -0.00022666160136238195, 3298554000000, 
-0.06888539679694056, 0.018949602245410764, -0.00029620346762209213, 3298559000000, 
-0.05198668486738475, -0.0178492407938036, -9.709113330170179e-05, 3298564000000, 
-0.08531820231246579, 0.0026362665429374857, 5.539300723078724e-05, 3298569000000, 
-0.04253799715740209, 0.009756330508629722, 0.00032054859465798847, 3298574000000, 
-0.035188662508980235, -0.01856357718381042, 3.0576580135249505e-05, 3298579000000, 
-0.0666273955080261, -0.020909145653018144, -5.131598944460701e-05, 3298584000000, 
-0.05223939070365711, 0.020174719358693673, -0.00010298916530544202, 3298589000000, 
-0.05581653345253842, -0.007641308281914998, -0.00014953471356675163, 3298594000000, 
-0.07138643025818625, -0.0054328516065678895, 0.00024393454589990296, 3298599000000, 
-0.05649705746359621, 0.017385290780055268, 0.00018407461219268573, 3298604000000, 
-0.045148203555810486, -0.027596162212131424, -0.00010342846501297292, 3298609000000, 
-0.08396336192381554, -0.013532613467877753, -0.0003262586059024408, 3298614000000, 
-0.04792910806731229, 0.017088373460587756, -7.339360641521627e-05, 3298619000000, 
-0.06620809112407176, 0.016055522738912222, -1.3823238285830456e-05, 3298624000000, 
-0.06027842096686305, -0.006991969039907977, -8.542540117053419e-05, 3298629000000, 
-0.09308294644126847, -0.00377644352702797, 8.672637977381633e-06, 3298634000000, 
-0.06609196916773359, -0.01670860639943035, -0.00011560765168723279, 3298639000000, 
-0.03149279272697281, 0.021200387241197008, -5.112049691973132e-05, 3298644000000, 
-0.035360512838384185, 0.007901405890569091, -0.00010217500457060399, 3298649000000, 
-0.07216386074807733, 0.013282763438152075, 0.00021942460802571543, 3298654000000, 
-0.07947136827679281, 0.012548115812178006, 0.00022082782812244022, 3298659000000, 
-0.046132586696770714, -0.02689890196403618, -0.00017098332769399858, 3298664000000, 
-0.04830520593294001, -0.002888081788218388, -6.521754819636268e-05, 3298669000000, 
-0.05470812864572998, -0.010006462983554924, 0.0002868637062533719, 3298674000000, 
-0.062336057293569384, 0.003097888959103521, 2.444738786249337e-05, 3298679000000, 
-0.06185001105148855, 0.02521697091121546, 0.0001139497486516582, 3298684000000, 
-0.055080439576324886, -0.009995406162519234, -0.00010452898794300055, 3298689000000, 
-0.08939172981480538, 0.020816931396375304, -0.00012469968835321132, 3298694000000, 
-0.05198138830989266, 0.016495799868044423, -0.00018198021799504076, 3298699000000, 
-0.06420719839590684, 0.0004853135166571137, 9.21313873452754e-05, 3298704000000, 
-0.04785357749939887, -0.0008965183304697861, 0.0001099396429833244, 3298709000000, 
-0.06889603903180741, -0.005512939761241387, 7.370563525235036e-05, 3298714000000, 
-0.06548639037857196, 0.009080194440963672, -0.00013523275680612693, 3298719000000, 
-0.07704757985540983, -0.011859773797984027, -0.00015527187701913964, 3298724000000, 
-0.04894573324593467, 0.0068489450824814665, -6.644555556052128e-05, 3298729000000, 
-0.08318646166011323, 0.022569217839790514, 5.815235188681539e-05, 3298734000000, 
-0.03301223462487045, 0.01060497825379503, 8.923741186222106e-05, 3298739000000, 
-0.050009733889143565, 0.001712350170377427, 0.000281681671914461, 3298744000000, 
-0.05208189819626124, 0.04759853729102839, 0.0002163530940870079, 3298749000000, 
-0.04603383834726996, -0.03434560493123396, 0.00012950832639585405, 3298754000000, 
-0.0537297092735033, -0.0245163082858137, -2.2174506536790283e-05, 3298759000000, 
-0.04772418792017888, 0.0028398411752886157, 0.0002248902497197334, 3298764000000, 
-0.04167607538267103, 0.015017701723921287, 0.0002215646158981596, 3298769000000, 
-0.06515465128470764, -0.021755600026439975, -9.430854341394909e-05, 3298774000000, 
-0.07988775692640557, -0.006111697078166551, -0.00016314466697344525, 3298779000000, 
-0.06770510030571919, -0.017239529752191965, -0.0001828274297724555, 3298784000000, 
-0.07180705245757878, 0.017347264060030874, 7.602704214925737e-05, 3298789000000, 
-0.0364661974415979, 0.03614321217656351, 1.6209850701157176e-05, 3298794000000, 
-0.05150539315358173, 0.024901727308104304, 0.00010456381236618606, 3298799000000, 
-0.07329325605255767, -0.008425606735756881, -0.00011819430841169572, 3298804000000, 
-0.0655726748528942, -0.006179508251476992, -0.00018599077531289402, 3298809000000, 
-0.06689765878912995, 0.01309819326714619, 0.00045444829554731257, 3298814000000, 
-0.059190566690929806, -0.012244385141989268, 3.056594400518777e-05, 3298819000000, 
-0.020416537648828732, 0.011681876209685946, -2.226440682543669e-05, 3298824000000, 
-0.04928706347723864, 0.020665818890363452, -0.0002090775930392667, 3298829000000, 
-0.04529035939417701, -0.014092437948289703, -7.364743170459392e-06, 3298834000000, 
-0.07528868308969833, 0.01758447456070223, -9.158573837848722e-06, 3298839000000, 
-0.05954062948980354, 0.001700989930868462, 0.00015430718023576456, 3298844000000, 
-0.04613783727406908, 0.03489211206234448, 4.8774595355930114e-05, 3298849000000, 
-0.09422032063620978, -0.0059386022171009694, 0.0002629341538786063, 3298854000000, 
-0.0783464806909624, 0.00361287377826521, 0.00018782856226987778, 3298859000000, 
-0.037524572848422005, -0.005968480124343617, -7.269044673038688e-05, 3298864000000, 
-0.07214185788295838, -0.02373472474734837, -0.0002589569161356835, 3298869000000, 
-0.02185347628581065, 0.006129852005637537, 0.0001332763565686595, 3298874000000, 
-0.027258642825268044, 0.0123440170980404, 0.00011866782367224772, 3298879000000, 
-0.04159655854823086, 0.009642698303107947, -0.00016528409348843043, 3298884000000, 
-0.030945230925207772, -0.0030169671993347533, 3.737376032202955e-05, 3298889000000, 
-0.04612279698233042, -0.02915182183776509, 5.601686644028736e-05, 3298894000000, 
-0.06682254698064534, -0.00732597372528556, 2.7021284143996432e-05, 3298899000000, 
-0.04162192654279337, 0.015779961384197464, 0.00029683821213234354, 3298904000000, 
-0.055792641368790176, -0.016151617267958197, 0.00044308136071155905, 3298909000000, 
-0.06664641577391754, -0.020807691577303573, -0.00021049939496968202, 3298914000000, 
-0.03437922980524366, 0.004439974106122274, -0.0002836413146176962, 3298919000000, 
-0.07671728009235228, 0.0018661437472147322, -2.794359609086868e-05, 3298924000000, 
-0.03155115639602332, -0.002161341526416954, 0.00025899380072539116, 3298929000000, 
-0.03711145285040039, 0.011459650337618215, -5.197728815191245e-05, 3298934000000, 
-0.06689241452536146, -0.00649111411939366, 0.00015383547420579129, 3298939000000, 
-0.03565071292131214, 0.010434810134922371, -0.00026285654531777065, 3298944000000, 
-0.04704007848581302, -0.03422930154150706, -0.00023792434538047032, 3298949000000, 
-0.08701002446505599, -0.008817020090734063, -4.475874515829205e-05, 3298954000000, 
-0.045074013812050506, 0.009239850431256044, -0.000330716274217757, 3298959000000, 
-0.048971983656830975, 0.00024164835449092805, -9.089831332514874e-05, 3298964000000, 
-0.0729540547677073, -0.026041578463736788, 0.00011304388209649397, 3298969000000, 
-0.05442057665003198, -0.01034429029063517, 0.00015080477429506824, 3298974000000, 
-0.05311040802664832, -0.038960676033087935, -0.00013255324955497823, 3298979000000, 
-0.07849449067620676, 0.018209771282882807, -0.00024806526878581284, 3298984000000, 
-0.07601256081030983, 0.02023217267256852, -1.2393814515015818e-05, 3298989000000, 
-0.045035484846795606, -0.006697752720668345, -0.00020131800016191882, 3298994000000, 
-0.07849276999827931, -0.021415761348878376, -0.0002940930176435258, 3298999000000, 
-0.024833725056939794, 0.003489611211562876, 0.00019514427090758525, 3299004000000, 
-0.07298100788080276, 0.01749883086876183, -0.00010642277687421907, 3299009000000, 
-0.04328019246064235, 0.0026461434202145187, -8.280183111119035e-05, 3299014000000, 
-0.051441480401624544, -0.010618176628387493, -6.60281251156596e-05, 3299019000000, 
-0.08158993725082278, 0.010643291515982024, 0.00015245045213052667, 3299024000000, 
-0.08760968483697372, 0.0037648495656839973, 0.00017457490775685117, 3299029000000, 
-0.054661946762938986, -0.008058331911508808, 0.00020828772198965475, 3299034000000, 
-0.028785316818111046, -0.03077679211490217, 0.00010736097141762561, 3299039000000, 
-0.0731632770573987, -0.01077476787616621, -0.0002270405536765009, 3299044000000, 
-0.07825465894387364, 0.022807297431356094, -0.00010183308385457666, 3299049000000, 
-0.011054951131419771, -0.02175496620008967, -0.0001746896823736874, 3299054000000, 
-0.044707315170684964, 0.006250533605076006, -0.00032458101537646594, 3299059000000, 
-0.05500737469250211, -0.011591274216430685, 2.4564909345247194e-05, 3299064000000, 
-0.06042284948580216, -0.006457033601408013, -0.00015314721115670152, 3299069000000, 
-0.06290836257353483, -0.011031409248917066, 2.8518997726127062e-05, 3299074000000, 
-0.026171452800764407, 0.017714650797782276, 0.00013374227284751184, 3299079000000, 
-0.05180045495141551, -0.0043824778651171716, 5.5550984929074234e-05, 3299084000000, 
-0.030096710953037915, -0.016918385528017176, 6.768065441870598e-05, 3299089000000, 
-0.038934022863233456, 0.002508110948865725, -0.00010396115568159406, 3299094000000, 
-0.07797678825774944, -0.02343408632653383, 3.343750259583787e-05, 3299099000000, 
-0.043116733031714566, -0.018652028470943178, 0.00020392195566835888, 3299104000000, 
-0.030061176300424885, -0.008179924441232356, 1.3280243628967528e-05, 3299109000000, 
-0.048762799187740825, 0.0005844737405603762, -0.0004145695616189094, 3299114000000, 
-0.06459652507489927, 0.02421948787164359, -0.00018769272826874332, 3299119000000, 
-0.05612623186327745, -0.003617316882771346, 0.00015401678219594304, 3299124000000, 
-0.06499666877787705, 0.010273565974844561, -0.0002424062233146641, 3299129000000, 
-0.0614912430558296, 0.032512062518046385, -5.7493825707285e-05, 3299134000000, 
-0.06692538820967527, -0.01534671048895974, -9.673738121581123e-06, 3299139000000, 
-0.06250345942720836, 0.020652389279051445, -9.040011287820598e-05, 3299144000000, 
-0.05341564940483663, -0.004886077630962449, -0.00018600673303316185, 3299149000000, 
-0.06478652639163324, -0.013600026655562212, 0.00014935529847407927, 3299154000000, 
-0.023112641608054305, -0.0021093861786161006, 0.0002817978137381849, 3299159000000, 
-0.05873006321836615, -0.0005068186976369624, 0.00013845406639149691, 3299164000000, 
-0.08563904977160898, -0.008946992067042704, 2.2140507445173427e-05, 3299169000000, 
-0.052986112881992585, -0.0006053371717084357, -4.348632066247921e-05, 3299174000000, 
-0.0755704320838326, 0.009295563210814366, 0.00027916342062869255, 3299179000000, 
-0.06939228519604448, 0.011663381107805309, -3.784950161351445e-05, 3299184000000, 
-0.015280695474690471, -0.002329952434388737, 6.561753978720577e-05, 3299189000000, 
-0.04113058862202887, -0.015721606450703706, -9.705208781123066e-06, 3299194000000, 
-0.06098118690751011, -0.01390563618882898, 5.817641402978104e-05, 3299199000000, 
-0.041851482645039545, 0.005494036402097601, 7.211230549198477e-05, 3299204000000, 
-0.058373046954961955, 0.0009955071721045041, -7.891242274754733e-06, 3299209000000, 
-0.05509946976765385, -0.020287522534839682, -7.15792730673898e-05, 3299214000000, 
-0.05406649041636846, -0.03486693116716614, -0.00021177232917551887, 3299219000000, 
-0.03493893370318483, -0.026725373839580208, -0.0003362959469336079, 3299224000000, 
-0.07215891488191686, 0.014310211315845617, -0.0004054145165695771, 3299229000000, 
-0.04054550751809586, 0.033917409378228236, -0.0003121644124215691, 3299234000000, 
-0.0697367818990515, -0.007703521211276621, 0.0003042506690035573, 3299239000000, 
-0.05466515732245524, -0.016233860911176803, 0.00025650797748504435, 3299244000000, 
-0.04359208792938019, 0.020435381469118247, 0.00036308766259633305, 3299249000000, 
-0.04712246597257634, -0.022960142472450335, 9.123974132650925e-05, 3299254000000, 
-0.074411610055194, 0.013986184098107975, -2.2855008367192847e-05, 3299259000000, 
-0.06471578513637626, 0.01382853794959209, 1.3210964662496876e-05, 3299264000000, 
